Time/Date, W, X, Y, Z, AccX, AccY, AccZ, GyroX, GyroY, GyroZ, MagX, MagY, MagZ
11:47:22 07/04/2014,0.29,-0.37,-0.63,0.62,0.05,-0.97,-0.14,-0.98,0.24,-2.44,393.00,-2599.00,1039.00
11:47:22 07/04/2014,0.29,-0.37,-0.63,0.62,0.05,-0.97,-0.15,-0.98,0.31,-2.38,393.00,-2599.00,1039.00
11:47:22 07/04/2014,0.29,-0.37,-0.63,0.62,0.05,-0.97,-0.15,-0.85,0.37,-2.32,393.00,-2599.00,1039.00
11:47:22 07/04/2014,0.29,-0.37,-0.63,0.62,0.05,-0.97,-0.15,-0.73,0.31,-2.38,393.00,-2599.00,1039.00
11:47:22 07/04/2014,0.29,-0.37,-0.63,0.62,0.05,-0.98,-0.14,-0.67,0.37,-2.38,393.00,-2599.00,1039.00
11:47:22 07/04/2014,0.29,-0.37,-0.63,0.62,0.05,-0.98,-0.15,-0.55,0.24,-2.38,393.00,-2599.00,1039.00
11:47:22 07/04/2014,0.29,-0.37,-0.63,0.62,0.05,-0.98,-0.15,-0.43,0.18,-2.38,393.00,-2599.00,1039.00
11:47:22 07/04/2014,0.29,-0.37,-0.63,0.62,0.05,-0.97,-0.15,-0.31,0.12,-2.38,393.00,-2599.00,1039.00
11:47:22 07/04/2014,0.29,-0.37,-0.63,0.62,0.05,-0.97,-0.15,-0.18,0.12,-2.38,393.00,-2599.00,1039.00
11:47:22 07/04/2014,0.29,-0.37,-0.63,0.62,0.05,-0.98,-0.15,-0.12,0.12,-2.44,393.00,-2599.00,1039.00
11:47:22 07/04/2014,0.29,-0.37,-0.63,0.62,0.05,-0.98,-0.15,0.00,0.18,-2.44,524.00,-2630.00,1130.00
11:47:22 07/04/2014,0.29,-0.37,-0.63,0.62,0.05,-0.98,-0.15,0.06,0.24,-2.44,524.00,-2630.00,1130.00
11:47:22 07/04/2014,0.29,-0.37,-0.63,0.62,0.05,-0.98,-0.15,0.24,0.24,-2.44,524.00,-2630.00,1130.00
11:47:22 07/04/2014,0.29,-0.37,-0.63,0.62,0.05,-0.98,-0.15,0.31,0.18,-2.44,524.00,-2630.00,1130.00
11:47:22 07/04/2014,0.29,-0.37,-0.63,0.62,0.05,-0.98,-0.15,0.43,0.12,-2.50,524.00,-2630.00,1130.00
11:47:22 07/04/2014,0.29,-0.37,-0.63,0.62,0.05,-0.98,-0.15,0.55,0.18,-2.44,524.00,-2630.00,1130.00
11:47:22 07/04/2014,0.29,-0.37,-0.63,0.62,0.05,-0.97,-0.15,0.61,0.24,-2.38,524.00,-2630.00,1130.00
11:47:22 07/04/2014,0.29,-0.37,-0.63,0.62,0.05,-0.97,-0.15,0.73,0.31,-2.32,524.00,-2630.00,1130.00
11:47:22 07/04/2014,0.29,-0.37,-0.63,0.62,0.05,-0.98,-0.15,0.85,0.31,-2.32,524.00,-2630.00,1130.00
11:47:22 07/04/2014,0.29,-0.37,-0.63,0.62,0.05,-0.98,-0.14,0.92,0.31,-2.32,524.00,-2630.00,1130.00
11:47:22 07/04/2014,0.29,-0.37,-0.63,0.62,0.05,-0.98,-0.14,0.98,0.31,-2.32,524.00,-2630.00,1130.00
11:47:22 07/04/2014,0.29,-0.37,-0.63,0.62,0.05,-0.98,-0.14,1.10,0.37,-2.26,524.00,-2630.00,1130.00
11:47:22 07/04/2014,0.29,-0.37,-0.63,0.62,0.05,-0.97,-0.14,1.16,0.31,-2.20,524.00,-2630.00,1130.00
11:47:22 07/04/2014,0.29,-0.37,-0.63,0.62,0.05,-0.98,-0.14,1.16,0.31,-2.14,524.00,-2630.00,1130.00
11:47:22 07/04/2014,0.29,-0.37,-0.63,0.62,0.05,-0.98,-0.13,1.22,0.31,-2.08,524.00,-2630.00,1130.00
11:47:22 07/04/2014,0.29,-0.37,-0.63,0.62,0.05,-0.98,-0.13,1.22,0.31,-2.01,524.00,-2630.00,1130.00
11:47:22 07/04/2014,0.29,-0.37,-0.63,0.62,0.05,-0.98,-0.13,1.28,0.31,-1.95,524.00,-2630.00,1130.00
11:47:22 07/04/2014,0.29,-0.37,-0.63,0.62,0.05,-0.98,-0.13,1.28,0.24,-1.89,524.00,-2630.00,1130.00
11:47:22 07/04/2014,0.29,-0.37,-0.63,0.62,0.05,-0.98,-0.13,1.28,0.18,-1.83,524.00,-2630.00,1130.00
11:47:22 07/04/2014,0.29,-0.37,-0.63,0.62,0.05,-0.98,-0.13,1.28,0.12,-1.71,393.00,-2678.00,1085.00
11:47:22 07/04/2014,0.29,-0.37,-0.63,0.62,0.05,-0.98,-0.13,1.28,0.06,-1.71,393.00,-2678.00,1085.00
11:47:22 07/04/2014,0.29,-0.37,-0.63,0.62,0.06,-0.98,-0.13,1.28,0.06,-1.59,393.00,-2678.00,1085.00
11:47:22 07/04/2014,0.29,-0.37,-0.63,0.62,0.06,-0.98,-0.12,1.28,0.06,-1.53,393.00,-2678.00,1085.00
11:47:22 07/04/2014,0.29,-0.37,-0.63,0.62,0.06,-0.98,-0.12,1.22,0.06,-1.34,393.00,-2678.00,1085.00
11:47:22 07/04/2014,0.29,-0.37,-0.63,0.62,0.06,-0.98,-0.12,1.16,0.00,-1.16,393.00,-2678.00,1085.00
11:47:22 07/04/2014,0.29,-0.37,-0.63,0.62,0.05,-0.98,-0.12,1.10,0.06,-1.04,393.00,-2678.00,1085.00
11:47:22 07/04/2014,0.29,-0.37,-0.63,0.62,0.05,-0.98,-0.12,1.04,0.06,-0.85,393.00,-2678.00,1085.00
11:47:22 07/04/2014,0.29,-0.37,-0.63,0.62,0.05,-0.97,-0.12,1.04,0.06,-0.73,393.00,-2678.00,1085.00
11:47:22 07/04/2014,0.29,-0.37,-0.63,0.62,0.05,-0.97,-0.12,0.92,0.12,-0.61,393.00,-2678.00,1085.00
11:47:22 07/04/2014,0.29,-0.37,-0.63,0.62,0.05,-0.98,-0.12,0.85,0.06,-0.43,393.00,-2678.00,1085.00
11:47:22 07/04/2014,0.29,-0.37,-0.63,0.62,0.05,-0.98,-0.11,0.73,0.12,-0.24,393.00,-2678.00,1085.00
11:47:22 07/04/2014,0.29,-0.37,-0.63,0.62,0.05,-0.98,-0.11,0.73,0.00,-0.12,393.00,-2678.00,1085.00
11:47:22 07/04/2014,0.29,-0.37,-0.63,0.62,0.05,-0.98,-0.11,0.67,0.00,0.00,393.00,-2678.00,1085.00
11:47:22 07/04/2014,0.29,-0.37,-0.63,0.62,0.05,-0.98,-0.11,0.55,0.00,0.18,393.00,-2678.00,1085.00
11:47:22 07/04/2014,0.29,-0.37,-0.63,0.62,0.05,-0.98,-0.11,0.49,0.06,0.31,393.00,-2678.00,1085.00
11:47:22 07/04/2014,0.29,-0.37,-0.63,0.62,0.05,-0.98,-0.11,0.43,0.06,0.43,393.00,-2678.00,1085.00
11:47:22 07/04/2014,0.29,-0.37,-0.63,0.62,0.05,-0.98,-0.11,0.31,0.00,0.49,393.00,-2678.00,1085.00
11:47:22 07/04/2014,0.29,-0.37,-0.63,0.62,0.05,-0.98,-0.10,0.24,0.06,0.61,393.00,-2678.00,1085.00
11:47:22 07/04/2014,0.29,-0.37,-0.63,0.62,0.05,-0.98,-0.11,0.12,0.06,0.61,327.00,-2630.00,947.00
11:47:22 07/04/2014,0.29,-0.37,-0.63,0.62,0.05,-0.98,-0.11,0.00,-0.06,0.67,327.00,-2630.00,947.00
11:47:22 07/04/2014,0.29,-0.37,-0.63,0.62,0.05,-0.98,-0.11,-0.06,-0.12,0.73,327.00,-2630.00,947.00
11:47:22 07/04/2014,0.29,-0.37,-0.63,0.62,0.05,-0.98,-0.10,-0.18,-0.12,0.73,327.00,-2630.00,947.00
11:47:22 07/04/2014,0.29,-0.37,-0.63,0.62,0.05,-0.98,-0.11,-0.24,-0.18,0.79,327.00,-2630.00,947.00
11:47:22 07/04/2014,0.29,-0.37,-0.63,0.62,0.05,-0.98,-0.11,-0.31,-0.06,0.79,327.00,-2630.00,947.00
11:47:22 07/04/2014,0.29,-0.37,-0.63,0.62,0.05,-0.98,-0.11,-0.49,-0.12,0.79,327.00,-2630.00,947.00
11:47:22 07/04/2014,0.29,-0.37,-0.63,0.62,0.05,-0.98,-0.12,-0.55,-0.24,0.79,327.00,-2630.00,947.00
11:47:22 07/04/2014,0.29,-0.37,-0.63,0.62,0.05,-0.98,-0.10,-0.79,0.00,0.85,327.00,-2630.00,947.00
11:47:22 07/04/2014,0.29,-0.37,-0.63,0.62,0.05,-0.98,-0.11,-0.98,-0.12,0.85,327.00,-2630.00,947.00
11:47:22 07/04/2014,0.29,-0.37,-0.63,0.62,0.05,-0.98,-0.11,-0.92,-0.12,0.79,327.00,-2630.00,947.00
11:47:22 07/04/2014,0.29,-0.37,-0.63,0.62,0.05,-0.98,-0.13,-0.92,-0.06,0.73,327.00,-2630.00,947.00
11:47:22 07/04/2014,0.29,-0.37,-0.63,0.62,0.05,-0.98,-0.11,-0.85,-0.12,0.73,327.00,-2630.00,947.00
11:47:22 07/04/2014,0.29,-0.37,-0.63,0.62,0.05,-0.98,-0.13,-0.92,-0.24,0.73,327.00,-2630.00,947.00
11:47:22 07/04/2014,0.29,-0.37,-0.63,0.62,0.05,-0.98,-0.11,-0.98,-0.12,0.73,327.00,-2630.00,947.00
11:47:22 07/04/2014,0.29,-0.37,-0.63,0.62,0.05,-0.98,-0.11,-1.16,-0.12,0.73,327.00,-2630.00,947.00
11:47:22 07/04/2014,0.29,-0.37,-0.63,0.62,0.05,-0.98,-0.11,-1.28,0.12,0.67,327.00,-2630.00,947.00
11:47:22 07/04/2014,0.29,-0.37,-0.63,0.62,0.05,-0.98,-0.11,-1.28,0.12,0.79,327.00,-2630.00,947.00
11:47:22 07/04/2014,0.29,-0.37,-0.63,0.62,0.05,-0.98,-0.12,-1.16,-0.06,0.73,393.00,-2599.00,1039.00
11:47:22 07/04/2014,0.29,-0.37,-0.63,0.62,0.05,-0.98,-0.13,-1.16,-0.12,0.67,393.00,-2599.00,1039.00
11:47:22 07/04/2014,0.29,-0.37,-0.63,0.62,0.05,-0.98,-0.11,-1.16,-0.12,0.61,393.00,-2599.00,1039.00
11:47:22 07/04/2014,0.29,-0.37,-0.63,0.62,0.05,-0.98,-0.12,-1.28,-0.12,0.61,393.00,-2599.00,1039.00
11:47:22 07/04/2014,0.29,-0.37,-0.63,0.62,0.05,-0.98,-0.11,-1.22,-0.12,0.61,393.00,-2599.00,1039.00
11:47:22 07/04/2014,0.29,-0.37,-0.63,0.62,0.05,-0.98,-0.12,-1.28,0.18,0.67,393.00,-2599.00,1039.00
11:47:22 07/04/2014,0.29,-0.37,-0.63,0.62,0.05,-0.98,-0.12,-1.16,-0.18,0.61,393.00,-2599.00,1039.00
11:47:22 07/04/2014,0.29,-0.37,-0.63,0.62,0.05,-0.98,-0.13,-1.16,-0.37,0.55,393.00,-2599.00,1039.00
11:47:22 07/04/2014,0.29,-0.37,-0.63,0.62,0.05,-0.98,-0.12,-1.22,-0.12,0.61,393.00,-2599.00,1039.00
11:47:22 07/04/2014,0.29,-0.37,-0.63,0.62,0.04,-0.98,-0.13,-1.04,-0.43,0.55,393.00,-2599.00,1039.00
11:47:22 07/04/2014,0.29,-0.37,-0.63,0.62,0.05,-0.98,-0.14,-1.10,-0.24,0.55,393.00,-2599.00,1039.00
11:47:22 07/04/2014,0.29,-0.37,-0.63,0.62,0.06,-0.98,-0.11,-1.16,0.12,0.61,393.00,-2599.00,1039.00
11:47:22 07/04/2014,0.29,-0.37,-0.63,0.62,0.05,-0.97,-0.12,0.00,-0.67,0.49,393.00,-2599.00,1039.00
11:47:22 07/04/2014,0.29,-0.37,-0.63,0.62,0.05,-0.98,-0.17,-0.06,-0.85,0.49,393.00,-2599.00,1039.00
11:47:22 07/04/2014,0.29,-0.37,-0.63,0.62,0.04,-0.98,-0.13,0.24,-1.10,0.49,393.00,-2599.00,1039.00
11:47:22 07/04/2014,0.29,-0.37,-0.63,0.62,0.08,-0.99,-0.13,-0.55,-0.49,0.67,393.00,-2599.00,1039.00
11:47:22 07/04/2014,0.29,-0.37,-0.63,0.62,0.07,-0.97,-0.12,0.31,-0.98,0.61,393.00,-2599.00,1039.00
11:47:22 07/04/2014,0.29,-0.37,-0.63,0.62,0.04,-0.96,-0.10,0.73,-1.59,0.55,393.00,-2599.00,1039.00
11:47:22 07/04/2014,0.29,-0.37,-0.63,0.62,0.03,-0.98,-0.19,-0.06,-1.04,0.73,409.00,-2583.00,1130.00
11:47:22 07/04/2014,0.29,-0.37,-0.63,0.62,0.05,-0.97,-0.10,-0.37,-0.61,0.79,409.00,-2583.00,1130.00
11:47:22 07/04/2014,0.29,-0.37,-0.63,0.62,0.05,-0.97,-0.17,-0.67,-0.37,0.98,409.00,-2583.00,1130.00
11:47:22 07/04/2014,0.29,-0.37,-0.63,0.62,0.05,-0.97,-0.12,-0.61,-0.12,1.04,409.00,-2583.00,1130.00
11:47:22 07/04/2014,0.29,-0.37,-0.63,0.62,0.05,-0.97,-0.15,-0.73,-0.31,1.10,409.00,-2583.00,1130.00
11:47:22 07/04/2014,0.29,-0.37,-0.63,0.62,0.05,-0.97,-0.15,-0.79,-0.18,1.16,409.00,-2583.00,1130.00
11:47:22 07/04/2014,0.29,-0.37,-0.63,0.62,0.05,-0.97,-0.12,-0.73,-0.12,1.22,409.00,-2583.00,1130.00
11:47:22 07/04/2014,0.29,-0.37,-0.63,0.62,0.05,-0.97,-0.16,-0.67,-0.18,1.28,409.00,-2583.00,1130.00
11:47:22 07/04/2014,0.29,-0.37,-0.63,0.62,0.05,-0.98,-0.13,-0.55,-0.12,1.22,409.00,-2583.00,1130.00
11:47:22 07/04/2014,0.29,-0.37,-0.63,0.62,0.04,-0.98,-0.15,-0.61,-0.12,1.16,409.00,-2583.00,1130.00
11:47:22 07/04/2014,0.29,-0.37,-0.63,0.62,0.05,-0.98,-0.12,-0.49,-0.31,1.10,409.00,-2583.00,1130.00
11:47:22 07/04/2014,0.29,-0.37,-0.63,0.62,0.05,-0.98,-0.14,-0.37,-0.31,1.10,409.00,-2583.00,1130.00
11:47:22 07/04/2014,0.29,-0.37,-0.63,0.62,0.04,-0.98,-0.15,-0.18,-0.31,1.04,409.00,-2583.00,1130.00
11:47:22 07/04/2014,0.29,-0.37,-0.63,0.62,0.05,-0.98,-0.15,-0.12,-0.37,0.92,409.00,-2583.00,1130.00
11:47:22 07/04/2014,0.29,-0.37,-0.63,0.62,0.05,-0.98,-0.15,-0.12,-0.43,0.92,409.00,-2583.00,1130.00
11:47:22 07/04/2014,0.29,-0.37,-0.63,0.62,0.05,-0.97,-0.14,-0.06,-0.18,0.85,409.00,-2583.00,1130.00
11:47:22 07/04/2014,0.29,-0.37,-0.63,0.62,0.05,-0.97,-0.15,0.06,-0.12,0.79,409.00,-2583.00,1130.00
11:47:22 07/04/2014,0.29,-0.37,-0.63,0.62,0.05,-0.97,-0.15,0.18,-0.12,0.73,294.00,-2693.00,1100.00
11:47:22 07/04/2014,0.29,-0.37,-0.63,0.62,0.05,-0.98,-0.15,0.24,-0.18,0.67,294.00,-2693.00,1100.00
11:47:22 07/04/2014,0.29,-0.37,-0.63,0.62,0.05,-0.98,-0.14,0.31,-0.18,0.67,294.00,-2693.00,1100.00
11:47:22 07/04/2014,0.29,-0.37,-0.63,0.62,0.05,-0.98,-0.15,0.43,-0.12,0.61,294.00,-2693.00,1100.00
11:47:22 07/04/2014,0.29,-0.37,-0.63,0.62,0.05,-0.98,-0.15,0.55,-0.06,0.61,294.00,-2693.00,1100.00
11:47:22 07/04/2014,0.29,-0.37,-0.63,0.62,0.05,-0.98,-0.15,0.61,-0.06,0.49,294.00,-2693.00,1100.00
11:47:22 07/04/2014,0.29,-0.37,-0.63,0.62,0.05,-0.98,-0.14,0.73,0.06,0.43,294.00,-2693.00,1100.00
11:47:22 07/04/2014,0.29,-0.37,-0.63,0.62,0.05,-0.98,-0.14,0.73,0.06,0.37,294.00,-2693.00,1100.00
11:47:22 07/04/2014,0.29,-0.37,-0.63,0.62,0.05,-0.97,-0.13,0.92,0.12,0.37,294.00,-2693.00,1100.00
11:47:22 07/04/2014,0.29,-0.37,-0.63,0.62,0.05,-0.97,-0.14,0.98,0.12,0.31,294.00,-2693.00,1100.00
11:47:22 07/04/2014,0.29,-0.37,-0.63,0.62,0.05,-0.98,-0.14,1.04,0.06,0.18,294.00,-2693.00,1100.00
11:47:22 07/04/2014,0.29,-0.37,-0.63,0.62,0.05,-0.98,-0.13,1.04,0.06,0.18,294.00,-2693.00,1100.00
11:47:22 07/04/2014,0.29,-0.37,-0.63,0.62,0.05,-0.98,-0.13,1.10,0.06,0.12,294.00,-2693.00,1100.00
11:47:22 07/04/2014,0.29,-0.37,-0.63,0.62,0.05,-0.98,-0.13,1.16,0.06,0.06,294.00,-2693.00,1100.00
11:47:22 07/04/2014,0.29,-0.37,-0.63,0.62,0.05,-0.98,-0.13,1.16,0.06,0.00,294.00,-2693.00,1100.00
11:47:22 07/04/2014,0.29,-0.37,-0.63,0.62,0.05,-0.98,-0.12,1.22,0.00,-0.06,294.00,-2693.00,1100.00
11:47:22 07/04/2014,0.29,-0.37,-0.63,0.62,0.05,-0.98,-0.12,1.16,-0.06,-0.06,294.00,-2693.00,1100.00
11:47:22 07/04/2014,0.29,-0.37,-0.63,0.62,0.05,-0.98,-0.13,1.22,-0.06,-0.12,294.00,-2693.00,1100.00
11:47:22 07/04/2014,0.29,-0.37,-0.63,0.62,0.05,-0.98,-0.13,1.16,-0.06,-0.18,458.00,-2599.00,1085.00
11:47:22 07/04/2014,0.29,-0.37,-0.63,0.62,0.05,-0.98,-0.13,1.16,-0.06,-0.18,458.00,-2599.00,1085.00
11:47:22 07/04/2014,0.29,-0.37,-0.63,0.62,0.05,-0.98,-0.12,1.16,-0.12,-0.18,458.00,-2599.00,1085.00
11:47:22 07/04/2014,0.29,-0.37,-0.63,0.62,0.05,-0.98,-0.12,1.16,-0.12,-0.24,458.00,-2599.00,1085.00
11:47:22 07/04/2014,0.29,-0.37,-0.63,0.62,0.05,-0.98,-0.12,1.16,-0.06,-0.31,458.00,-2599.00,1085.00
11:47:22 07/04/2014,0.29,-0.37,-0.63,0.62,0.05,-0.98,-0.12,1.16,-0.06,-0.31,458.00,-2599.00,1085.00
11:47:22 07/04/2014,0.29,-0.37,-0.63,0.62,0.05,-0.98,-0.12,1.22,0.00,-0.37,458.00,-2599.00,1085.00
11:47:23 07/04/2014,0.29,-0.37,-0.63,0.62,0.05,-0.98,-0.12,1.16,0.00,-0.43,458.00,-2599.00,1085.00
11:47:23 07/04/2014,0.29,-0.37,-0.63,0.62,0.05,-0.98,-0.12,1.16,0.06,-0.43,458.00,-2599.00,1085.00
11:47:23 07/04/2014,0.29,-0.37,-0.63,0.62,0.05,-0.98,-0.12,1.10,0.06,-0.43,458.00,-2599.00,1085.00
11:47:23 07/04/2014,0.29,-0.37,-0.63,0.62,0.06,-0.98,-0.12,1.10,0.06,-0.43,458.00,-2599.00,1085.00
11:47:23 07/04/2014,0.29,-0.37,-0.63,0.62,0.06,-0.98,-0.11,1.04,0.12,-0.43,458.00,-2599.00,1085.00
11:47:23 07/04/2014,0.29,-0.37,-0.63,0.62,0.05,-0.98,-0.11,0.98,0.12,-0.43,458.00,-2599.00,1085.00
11:47:23 07/04/2014,0.29,-0.37,-0.63,0.62,0.05,-0.98,-0.11,0.92,0.12,-0.43,458.00,-2599.00,1085.00
11:47:23 07/04/2014,0.29,-0.37,-0.63,0.62,0.05,-0.98,-0.11,0.79,0.12,-0.49,458.00,-2599.00,1085.00
11:47:23 07/04/2014,0.29,-0.37,-0.63,0.62,0.05,-0.98,-0.11,0.79,0.12,-0.49,458.00,-2599.00,1085.00
11:47:23 07/04/2014,0.29,-0.37,-0.63,0.62,0.05,-0.98,-0.11,0.73,0.06,-0.49,458.00,-2599.00,1085.00
11:47:23 07/04/2014,0.29,-0.37,-0.63,0.62,0.05,-0.98,-0.11,0.55,0.06,-0.55,458.00,-2646.00,1085.00
11:47:23 07/04/2014,0.29,-0.37,-0.63,0.61,0.05,-0.98,-0.14,-0.18,0.00,-1.10,458.00,-2646.00,1085.00
11:47:23 07/04/2014,0.29,-0.37,-0.63,0.61,0.05,-0.98,-0.15,-0.12,0.00,-1.04,458.00,-2646.00,1085.00
11:47:23 07/04/2014,0.29,-0.37,-0.63,0.61,0.05,-0.98,-0.14,-0.06,0.00,-1.10,458.00,-2646.00,1085.00
11:47:23 07/04/2014,0.29,-0.37,-0.63,0.61,0.05,-0.98,-0.14,-0.06,0.00,-1.10,458.00,-2646.00,1085.00
11:47:23 07/04/2014,0.29,-0.37,-0.63,0.61,0.05,-0.97,-0.14,0.00,0.00,-1.10,458.00,-2646.00,1085.00
11:47:23 07/04/2014,0.29,-0.37,-0.63,0.61,0.05,-0.97,-0.14,0.06,0.12,-1.10,458.00,-2646.00,1085.00
11:47:23 07/04/2014,0.29,-0.37,-0.63,0.61,0.05,-0.98,-0.14,0.18,0.12,-1.16,458.00,-2646.00,1085.00
11:47:23 07/04/2014,0.29,-0.37,-0.63,0.61,0.05,-0.98,-0.14,0.24,0.12,-1.22,458.00,-2646.00,1085.00
11:47:23 07/04/2014,0.29,-0.37,-0.63,0.61,0.05,-0.98,-0.14,0.31,0.18,-1.16,458.00,-2646.00,1085.00
11:47:23 07/04/2014,0.29,-0.37,-0.63,0.61,0.05,-0.98,-0.14,0.31,0.12,-1.16,458.00,-2646.00,1085.00
11:47:23 07/04/2014,0.29,-0.37,-0.63,0.61,0.05,-0.98,-0.14,0.43,0.12,-1.16,458.00,-2646.00,1085.00
11:47:23 07/04/2014,0.29,-0.37,-0.63,0.61,0.05,-0.98,-0.14,0.49,0.12,-1.16,458.00,-2646.00,1085.00
11:47:23 07/04/2014,0.29,-0.37,-0.63,0.61,0.05,-0.98,-0.14,0.55,0.12,-1.22,458.00,-2646.00,1085.00
11:47:23 07/04/2014,0.29,-0.37,-0.63,0.61,0.05,-0.98,-0.14,0.55,0.12,-1.16,458.00,-2646.00,1085.00
11:47:23 07/04/2014,0.29,-0.37,-0.63,0.61,0.05,-0.99,-0.14,0.61,0.12,-1.22,458.00,-2646.00,1085.00
11:47:23 07/04/2014,0.29,-0.37,-0.63,0.61,0.05,-0.98,-0.14,0.79,0.06,-1.22,458.00,-2646.00,1085.00
11:47:23 07/04/2014,0.29,-0.37,-0.63,0.61,0.05,-0.97,-0.14,0.79,-0.06,-1.28,458.00,-2646.00,1085.00
11:47:23 07/04/2014,0.29,-0.37,-0.63,0.61,0.05,-0.97,-0.15,0.92,0.00,-1.28,458.00,-2646.00,1085.00
11:47:23 07/04/2014,0.29,-0.37,-0.63,0.61,0.04,-0.97,-0.13,0.98,0.24,-1.34,458.00,-2646.00,1085.00
11:47:23 07/04/2014,0.29,-0.37,-0.63,0.61,0.04,-0.97,-0.15,1.04,0.31,-1.28,458.00,-2646.00,1085.00
11:47:23 07/04/2014,0.29,-0.37,-0.63,0.61,0.04,-0.97,-0.13,1.22,0.24,-1.34,458.00,-2646.00,1085.00
11:47:23 07/04/2014,0.29,-0.37,-0.63,0.61,0.04,-0.96,-0.14,1.16,0.31,-1.40,458.00,-2646.00,1085.00
11:47:23 07/04/2014,0.29,-0.37,-0.63,0.61,0.04,-0.97,-0.12,1.28,0.37,-1.34,458.00,-2646.00,1085.00
11:47:23 07/04/2014,0.29,-0.37,-0.63,0.61,0.04,-0.97,-0.13,1.40,0.24,-1.40,458.00,-2646.00,1085.00
11:47:23 07/04/2014,0.29,-0.37,-0.63,0.61,0.04,-0.98,-0.13,1.46,0.31,-1.46,458.00,-2646.00,1085.00
11:47:23 07/04/2014,0.29,-0.37,-0.63,0.61,0.04,-0.98,-0.12,1.46,0.31,-1.53,294.00,-2630.00,993.00
11:47:23 07/04/2014,0.29,-0.37,-0.63,0.61,0.04,-0.98,-0.13,1.53,0.31,-1.59,294.00,-2630.00,993.00
11:47:23 07/04/2014,0.29,-0.37,-0.63,0.61,0.05,-0.98,-0.12,1.53,0.18,-1.59,294.00,-2630.00,993.00
11:47:23 07/04/2014,0.29,-0.37,-0.63,0.61,0.05,-0.98,-0.13,1.53,0.31,-1.65,294.00,-2630.00,993.00
11:47:23 07/04/2014,0.29,-0.37,-0.63,0.61,0.05,-0.98,-0.12,1.53,0.24,-1.71,294.00,-2630.00,993.00
11:47:23 07/04/2014,0.29,-0.37,-0.63,0.61,0.06,-0.98,-0.13,1.53,0.24,-1.77,294.00,-2630.00,993.00
11:47:23 07/04/2014,0.29,-0.37,-0.63,0.61,0.06,-0.98,-0.12,1.53,0.24,-1.83,294.00,-2630.00,993.00
11:47:23 07/04/2014,0.29,-0.37,-0.63,0.61,0.05,-0.98,-0.13,1.53,0.24,-1.83,294.00,-2630.00,993.00
11:47:23 07/04/2014,0.29,-0.37,-0.63,0.61,0.05,-0.98,-0.12,1.59,0.18,-1.89,294.00,-2630.00,993.00
11:47:23 07/04/2014,0.29,-0.37,-0.63,0.61,0.05,-0.98,-0.12,1.53,0.18,-2.01,294.00,-2630.00,993.00
11:47:23 07/04/2014,0.29,-0.37,-0.63,0.61,0.04,-0.98,-0.11,1.53,0.24,-2.01,294.00,-2630.00,993.00
11:47:23 07/04/2014,0.29,-0.37,-0.63,0.61,0.04,-0.98,-0.13,1.53,0.18,-2.01,294.00,-2630.00,993.00
11:47:23 07/04/2014,0.29,-0.37,-0.63,0.61,0.03,-0.98,-0.11,1.46,0.31,-2.08,294.00,-2630.00,993.00
11:47:23 07/04/2014,0.29,-0.37,-0.63,0.61,0.03,-0.97,-0.12,1.40,0.18,-2.14,294.00,-2630.00,993.00
11:47:23 07/04/2014,0.29,-0.37,-0.63,0.61,0.03,-0.97,-0.12,1.46,0.18,-2.14,294.00,-2630.00,993.00
11:47:23 07/04/2014,0.29,-0.37,-0.63,0.61,0.04,-0.97,-0.11,1.34,0.18,-2.20,294.00,-2630.00,993.00
11:47:23 07/04/2014,0.29,-0.37,-0.63,0.61,0.04,-0.97,-0.11,1.28,0.24,-2.20,294.00,-2630.00,993.00
11:47:23 07/04/2014,0.29,-0.37,-0.63,0.61,0.04,-0.97,-0.11,1.28,0.24,-2.26,294.00,-2630.00,993.00
11:47:23 07/04/2014,0.29,-0.37,-0.63,0.61,0.04,-0.98,-0.11,1.22,0.37,-2.26,294.00,-2630.00,993.00
11:47:23 07/04/2014,0.29,-0.37,-0.63,0.61,0.04,-0.98,-0.10,1.16,0.24,-2.32,425.00,-2646.00,1085.00
11:47:23 07/04/2014,0.29,-0.37,-0.63,0.61,0.04,-0.98,-0.11,1.10,0.31,-2.44,425.00,-2646.00,1085.00
11:47:23 07/04/2014,0.29,-0.37,-0.63,0.61,0.04,-0.99,-0.10,1.10,0.37,-2.44,425.00,-2646.00,1085.00
11:47:23 07/04/2014,0.29,-0.37,-0.63,0.61,0.05,-0.99,-0.11,0.98,0.31,-2.50,425.00,-2646.00,1085.00
11:47:23 07/04/2014,0.29,-0.37,-0.63,0.61,0.05,-0.98,-0.11,0.92,0.31,-2.50,425.00,-2646.00,1085.00
11:47:23 07/04/2014,0.29,-0.37,-0.63,0.61,0.05,-0.97,-0.10,0.85,0.43,-2.56,425.00,-2646.00,1085.00
11:47:23 07/04/2014,0.29,-0.37,-0.63,0.61,0.05,-0.97,-0.10,0.73,0.37,-2.62,425.00,-2646.00,1085.00
11:47:23 07/04/2014,0.29,-0.37,-0.64,0.61,0.04,-0.97,-0.10,0.61,0.43,-2.69,425.00,-2646.00,1085.00
11:47:23 07/04/2014,0.29,-0.37,-0.64,0.61,0.04,-0.98,-0.10,0.49,0.43,-2.69,425.00,-2646.00,1085.00
11:47:23 07/04/2014,0.29,-0.37,-0.64,0.61,0.04,-0.98,-0.11,0.43,0.31,-2.69,425.00,-2646.00,1085.00
11:47:23 07/04/2014,0.29,-0.37,-0.64,0.61,0.04,-0.99,-0.11,0.37,0.18,-2.75,425.00,-2646.00,1085.00
11:47:23 07/04/2014,0.29,-0.37,-0.64,0.61,0.04,-0.99,-0.12,0.31,0.24,-2.75,425.00,-2646.00,1085.00
11:47:23 07/04/2014,0.29,-0.37,-0.64,0.61,0.04,-0.98,-0.13,0.24,0.31,-2.81,425.00,-2646.00,1085.00
11:47:23 07/04/2014,0.29,-0.37,-0.64,0.61,0.04,-0.98,-0.11,0.18,0.37,-2.93,425.00,-2646.00,1085.00
11:47:23 07/04/2014,0.29,-0.37,-0.64,0.61,0.04,-0.98,-0.13,0.12,0.49,-2.87,425.00,-2646.00,1085.00
11:47:23 07/04/2014,0.29,-0.37,-0.64,0.61,0.04,-0.97,-0.12,0.18,0.55,-2.87,425.00,-2646.00,1085.00
11:47:23 07/04/2014,0.29,-0.37,-0.64,0.61,0.04,-0.98,-0.11,0.18,0.43,-2.93,425.00,-2646.00,1085.00
11:47:23 07/04/2014,0.29,-0.37,-0.64,0.61,0.04,-0.97,-0.12,0.24,0.37,-2.93,425.00,-2646.00,1085.00
11:47:23 07/04/2014,0.29,-0.37,-0.64,0.61,0.04,-0.98,-0.12,0.31,0.49,-2.93,425.00,-2646.00,1085.00
11:47:23 07/04/2014,0.29,-0.37,-0.64,0.61,0.03,-0.98,-0.13,0.31,0.37,-2.99,409.00,-2552.00,1024.00
11:47:23 07/04/2014,0.29,-0.37,-0.64,0.61,0.03,-0.98,-0.13,0.37,0.43,-2.99,409.00,-2552.00,1024.00
11:47:23 07/04/2014,0.29,-0.37,-0.64,0.61,0.03,-0.99,-0.14,0.37,0.49,-3.05,409.00,-2552.00,1024.00
11:47:23 07/04/2014,0.29,-0.37,-0.64,0.61,0.04,-0.99,-0.12,0.43,0.55,-3.11,409.00,-2552.00,1024.00
11:47:23 07/04/2014,0.29,-0.37,-0.64,0.61,0.04,-0.98,-0.12,0.49,0.37,-3.11,409.00,-2552.00,1024.00
11:47:23 07/04/2014,0.29,-0.37,-0.64,0.61,0.04,-0.97,-0.13,0.55,0.31,-3.11,409.00,-2552.00,1024.00
11:47:23 07/04/2014,0.29,-0.36,-0.64,0.61,0.03,-0.97,-0.12,0.55,0.24,-3.17,409.00,-2552.00,1024.00
11:47:23 07/04/2014,0.29,-0.36,-0.64,0.61,0.03,-0.97,-0.13,0.61,0.18,-3.17,409.00,-2552.00,1024.00
11:47:23 07/04/2014,0.29,-0.36,-0.64,0.61,0.03,-0.97,-0.13,0.61,0.12,-3.23,409.00,-2552.00,1024.00
11:47:23 07/04/2014,0.29,-0.36,-0.64,0.61,0.04,-0.98,-0.11,0.61,0.24,-3.23,409.00,-2552.00,1024.00
11:47:23 07/04/2014,0.29,-0.36,-0.64,0.61,0.04,-0.98,-0.13,0.67,0.24,-3.23,409.00,-2552.00,1024.00
11:47:23 07/04/2014,0.30,-0.36,-0.64,0.61,0.04,-0.99,-0.13,0.73,0.12,-3.30,409.00,-2552.00,1024.00
11:47:23 07/04/2014,0.30,-0.36,-0.64,0.61,0.04,-0.99,-0.13,0.73,0.06,-3.30,409.00,-2552.00,1024.00
11:47:23 07/04/2014,0.30,-0.36,-0.64,0.61,0.03,-0.99,-0.12,0.79,0.06,-3.36,409.00,-2552.00,1024.00
11:47:23 07/04/2014,0.30,-0.36,-0.64,0.61,0.04,-0.98,-0.13,0.79,0.12,-3.36,409.00,-2552.00,1024.00
11:47:23 07/04/2014,0.30,-0.36,-0.64,0.61,0.04,-0.98,-0.13,0.85,0.12,-3.42,409.00,-2552.00,1024.00
11:47:23 07/04/2014,0.30,-0.36,-0.64,0.61,0.03,-0.97,-0.12,0.79,0.12,-3.48,409.00,-2552.00,1024.00
11:47:23 07/04/2014,0.30,-0.36,-0.64,0.61,0.03,-0.97,-0.12,0.79,0.31,-3.48,409.00,-2552.00,1024.00
11:47:23 07/04/2014,0.30,-0.36,-0.64,0.61,0.03,-0.97,-0.11,0.79,0.31,-3.54,409.00,-2552.00,1024.00
11:47:23 07/04/2014,0.30,-0.36,-0.64,0.61,0.03,-0.97,-0.12,0.85,0.24,-3.54,425.00,-2646.00,1085.00
11:47:23 07/04/2014,0.30,-0.36,-0.64,0.61,0.03,-0.98,-0.11,0.85,0.24,-3.60,425.00,-2646.00,1085.00
11:47:23 07/04/2014,0.30,-0.36,-0.64,0.61,0.03,-0.98,-0.12,0.85,0.24,-3.60,425.00,-2646.00,1085.00
11:47:23 07/04/2014,0.30,-0.36,-0.64,0.61,0.03,-0.98,-0.12,0.79,0.24,-3.60,425.00,-2646.00,1085.00
11:47:23 07/04/2014,0.30,-0.36,-0.64,0.61,0.03,-0.98,-0.13,0.79,0.31,-3.72,425.00,-2646.00,1085.00
11:47:23 07/04/2014,0.30,-0.36,-0.64,0.61,0.03,-0.98,-0.11,0.79,0.49,-3.66,425.00,-2646.00,1085.00
11:47:23 07/04/2014,0.30,-0.36,-0.64,0.61,0.03,-0.98,-0.12,0.73,0.49,-3.72,425.00,-2646.00,1085.00
11:47:23 07/04/2014,0.30,-0.36,-0.64,0.61,0.03,-0.98,-0.12,0.73,0.49,-3.72,425.00,-2646.00,1085.00
11:47:23 07/04/2014,0.30,-0.36,-0.64,0.61,0.03,-0.98,-0.11,0.73,0.37,-3.78,425.00,-2646.00,1085.00
11:47:23 07/04/2014,0.30,-0.36,-0.64,0.61,0.03,-0.98,-0.11,0.67,0.37,-3.78,425.00,-2646.00,1085.00
11:47:23 07/04/2014,0.30,-0.36,-0.64,0.61,0.03,-0.98,-0.11,0.67,0.37,-3.78,425.00,-2646.00,1085.00
11:47:23 07/04/2014,0.30,-0.36,-0.64,0.61,0.03,-0.98,-0.11,0.55,0.37,-3.78,425.00,-2646.00,1085.00
11:47:23 07/04/2014,0.30,-0.36,-0.64,0.61,0.03,-0.98,-0.11,0.55,0.24,-3.85,425.00,-2646.00,1085.00
11:47:23 07/04/2014,0.30,-0.36,-0.64,0.61,0.03,-0.98,-0.12,0.43,0.31,-3.91,425.00,-2646.00,1085.00
11:47:23 07/04/2014,0.30,-0.36,-0.64,0.61,0.03,-0.99,-0.10,0.43,0.37,-3.97,425.00,-2646.00,1085.00
11:47:23 07/04/2014,0.30,-0.36,-0.64,0.61,0.03,-0.98,-0.11,0.37,0.31,-4.03,425.00,-2646.00,1085.00
11:47:23 07/04/2014,0.30,-0.36,-0.64,0.61,0.03,-0.98,-0.11,0.37,0.24,-4.03,425.00,-2646.00,1085.00
11:47:23 07/04/2014,0.30,-0.36,-0.64,0.61,0.03,-0.98,-0.11,0.24,0.18,-4.03,425.00,-2646.00,1085.00
11:47:23 07/04/2014,0.30,-0.36,-0.64,0.61,0.03,-0.98,-0.11,0.18,0.18,-4.03,425.00,-2646.00,1085.00
11:47:23 07/04/2014,0.30,-0.36,-0.64,0.61,0.03,-0.98,-0.11,0.12,0.18,-4.09,393.00,-2788.00,1008.00
11:47:23 07/04/2014,0.30,-0.36,-0.64,0.61,0.02,-0.98,-0.12,0.06,0.31,-4.09,393.00,-2788.00,1008.00
11:47:23 07/04/2014,0.30,-0.36,-0.64,0.61,0.02,-0.98,-0.10,0.06,0.37,-4.15,393.00,-2788.00,1008.00
11:47:23 07/04/2014,0.30,-0.36,-0.64,0.61,0.02,-0.98,-0.11,0.00,0.37,-4.21,393.00,-2788.00,1008.00
11:47:23 07/04/2014,0.30,-0.36,-0.64,0.61,0.02,-0.98,-0.10,0.00,0.43,-4.15,393.00,-2788.00,1008.00
11:47:23 07/04/2014,0.30,-0.36,-0.64,0.61,0.02,-0.98,-0.12,-0.06,0.31,-4.21,393.00,-2788.00,1008.00
11:47:23 07/04/2014,0.30,-0.36,-0.64,0.61,0.03,-0.98,-0.13,-0.06,0.37,-4.27,393.00,-2788.00,1008.00
11:47:23 07/04/2014,0.30,-0.36,-0.64,0.61,0.03,-0.98,-0.11,-0.06,0.55,-4.27,393.00,-2788.00,1008.00
11:47:23 07/04/2014,0.30,-0.36,-0.64,0.61,0.02,-0.98,-0.13,-0.12,0.49,-4.33,393.00,-2788.00,1008.00
11:47:23 07/04/2014,0.30,-0.36,-0.64,0.61,0.03,-0.98,-0.12,-0.18,0.49,-4.33,393.00,-2788.00,1008.00
11:47:23 07/04/2014,0.30,-0.36,-0.64,0.61,0.02,-0.98,-0.12,-0.18,0.49,-4.33,393.00,-2788.00,1008.00
11:47:23 07/04/2014,0.30,-0.36,-0.64,0.61,0.02,-0.98,-0.10,-0.18,0.49,-4.39,393.00,-2788.00,1008.00
11:47:23 07/04/2014,0.30,-0.36,-0.64,0.61,0.02,-0.98,-0.11,-0.24,0.49,-4.39,393.00,-2788.00,1008.00
11:47:23 07/04/2014,0.30,-0.36,-0.64,0.61,0.02,-0.98,-0.11,-0.24,0.49,-4.39,393.00,-2788.00,1008.00
11:47:23 07/04/2014,0.30,-0.36,-0.64,0.61,0.02,-0.98,-0.09,-0.31,0.31,-4.46,393.00,-2788.00,1008.00
11:47:23 07/04/2014,0.30,-0.36,-0.64,0.61,0.02,-0.98,-0.11,-0.43,0.37,-4.52,393.00,-2788.00,1008.00
11:47:23 07/04/2014,0.30,-0.36,-0.64,0.61,0.01,-0.98,-0.10,-0.43,0.31,-4.52,393.00,-2788.00,1008.00
11:47:23 07/04/2014,0.30,-0.36,-0.64,0.61,0.02,-0.98,-0.11,-0.49,0.18,-4.58,393.00,-2788.00,1008.00
11:47:23 07/04/2014,0.30,-0.36,-0.64,0.61,0.03,-0.98,-0.11,-0.55,0.18,-4.64,393.00,-2788.00,1008.00
11:47:23 07/04/2014,0.30,-0.36,-0.64,0.61,0.02,-0.98,-0.10,-0.55,0.31,-4.64,196.00,-2867.00,947.00
11:47:23 07/04/2014,0.30,-0.36,-0.64,0.61,0.02,-0.98,-0.12,-0.67,0.12,-4.70,196.00,-2867.00,947.00
11:47:23 07/04/2014,0.30,-0.36,-0.64,0.61,0.02,-0.98,-0.11,-0.61,0.12,-4.70,196.00,-2867.00,947.00
11:47:23 07/04/2014,0.30,-0.36,-0.64,0.61,0.02,-0.98,-0.12,-0.67,0.18,-4.76,196.00,-2867.00,947.00
11:47:23 07/04/2014,0.30,-0.36,-0.64,0.61,0.02,-0.98,-0.13,-0.73,0.31,-4.70,196.00,-2867.00,947.00
11:47:23 07/04/2014,0.30,-0.36,-0.64,0.61,0.02,-0.98,-0.12,-0.67,0.31,-4.70,196.00,-2867.00,947.00
11:47:23 07/04/2014,0.30,-0.36,-0.64,0.61,0.02,-0.99,-0.13,-0.73,0.37,-4.76,196.00,-2867.00,947.00
11:47:23 07/04/2014,0.30,-0.36,-0.64,0.61,0.02,-0.98,-0.12,-0.67,0.43,-4.76,196.00,-2867.00,947.00
11:47:23 07/04/2014,0.30,-0.36,-0.64,0.61,0.02,-0.98,-0.14,-0.67,0.43,-4.82,196.00,-2867.00,947.00
11:47:23 07/04/2014,0.30,-0.36,-0.64,0.61,0.02,-0.98,-0.13,-0.61,0.49,-4.88,196.00,-2867.00,947.00
11:47:23 07/04/2014,0.30,-0.36,-0.64,0.61,0.02,-0.97,-0.14,-0.61,0.43,-4.88,196.00,-2867.00,947.00
11:47:23 07/04/2014,0.30,-0.36,-0.64,0.61,0.02,-0.97,-0.14,-0.55,0.55,-4.88,196.00,-2867.00,947.00
11:47:23 07/04/2014,0.30,-0.36,-0.64,0.61,0.01,-0.97,-0.14,-0.55,0.61,-4.88,196.00,-2867.00,947.00
11:47:23 07/04/2014,0.30,-0.36,-0.64,0.61,0.01,-0.98,-0.14,-0.37,0.61,-4.88,196.00,-2867.00,947.00
11:47:23 07/04/2014,0.30,-0.36,-0.64,0.61,0.01,-0.98,-0.13,-0.31,0.55,-4.94,196.00,-2867.00,947.00
11:47:23 07/04/2014,0.30,-0.36,-0.64,0.61,0.01,-0.98,-0.14,-0.18,0.73,-4.88,196.00,-2867.00,947.00
11:47:23 07/04/2014,0.30,-0.36,-0.64,0.61,0.01,-0.98,-0.14,-0.06,0.61,-4.94,196.00,-2867.00,947.00
11:47:23 07/04/2014,0.30,-0.36,-0.64,0.61,0.00,-0.97,-0.15,0.00,0.55,-5.00,196.00,-2867.00,947.00
11:47:23 07/04/2014,0.30,-0.36,-0.64,0.61,0.00,-0.97,-0.15,0.12,0.61,-5.00,196.00,-2867.00,947.00
11:47:23 07/04/2014,0.30,-0.36,-0.64,0.61,0.00,-0.97,-0.15,0.31,0.67,-4.94,163.00,-2851.00,901.00
11:47:23 07/04/2014,0.30,-0.36,-0.64,0.61,0.01,-0.97,-0.17,0.49,0.55,-5.00,163.00,-2851.00,901.00
11:47:23 07/04/2014,0.30,-0.36,-0.64,0.61,0.01,-0.97,-0.16,0.73,0.49,-5.00,163.00,-2851.00,901.00
11:47:23 07/04/2014,0.30,-0.36,-0.64,0.61,0.01,-0.98,-0.16,0.92,0.61,-5.00,163.00,-2851.00,901.00
11:47:23 07/04/2014,0.30,-0.36,-0.64,0.61,0.01,-0.98,-0.17,1.22,0.67,-5.00,163.00,-2851.00,901.00
11:47:23 07/04/2014,0.30,-0.36,-0.64,0.61,0.02,-0.99,-0.16,1.46,0.49,-5.07,163.00,-2851.00,901.00
11:47:23 07/04/2014,0.30,-0.36,-0.64,0.61,0.02,-0.99,-0.17,1.65,0.55,-5.07,163.00,-2851.00,901.00
11:47:23 07/04/2014,0.30,-0.36,-0.64,0.61,0.02,-1.00,-0.15,1.83,0.67,-5.07,163.00,-2851.00,901.00
11:47:23 07/04/2014,0.30,-0.36,-0.64,0.61,0.01,-0.99,-0.14,2.01,0.67,-5.13,163.00,-2851.00,901.00
11:47:23 07/04/2014,0.30,-0.36,-0.64,0.61,0.01,-0.98,-0.13,2.20,0.61,-5.13,163.00,-2851.00,901.00
11:47:23 07/04/2014,0.31,-0.36,-0.64,0.61,0.01,-0.98,-0.12,2.26,0.55,-5.13,163.00,-2851.00,901.00
11:47:23 07/04/2014,0.31,-0.36,-0.64,0.61,0.00,-0.98,-0.12,2.26,0.55,-5.13,163.00,-2851.00,901.00
11:47:23 07/04/2014,0.31,-0.36,-0.64,0.61,0.00,-0.98,-0.12,2.32,0.37,-5.13,163.00,-2851.00,901.00
11:47:23 07/04/2014,0.31,-0.36,-0.64,0.61,0.00,-0.97,-0.10,2.26,0.31,-5.19,163.00,-2851.00,901.00
11:47:23 07/04/2014,0.31,-0.36,-0.64,0.61,0.00,-0.97,-0.09,2.14,0.37,-5.19,163.00,-2851.00,901.00
11:47:23 07/04/2014,0.31,-0.36,-0.64,0.61,0.00,-0.97,-0.09,2.01,0.49,-5.25,163.00,-2851.00,901.00
11:47:23 07/04/2014,0.31,-0.36,-0.64,0.61,0.00,-0.97,-0.08,1.89,0.37,-5.25,163.00,-2851.00,901.00
11:47:23 07/04/2014,0.31,-0.35,-0.64,0.61,-0.00,-0.98,-0.08,1.71,0.24,-5.31,163.00,-2851.00,901.00
11:47:23 07/04/2014,0.31,-0.35,-0.64,0.61,0.00,-0.98,-0.08,1.53,0.24,-5.31,163.00,-2851.00,901.00
11:47:23 07/04/2014,0.31,-0.35,-0.64,0.61,0.00,-0.98,-0.08,1.34,0.31,-5.31,163.00,-2709.00,932.00
11:47:23 07/04/2014,0.31,-0.35,-0.64,0.61,0.01,-0.98,-0.08,1.16,0.18,-5.31,163.00,-2709.00,932.00
11:47:23 07/04/2014,0.31,-0.35,-0.64,0.61,0.02,-0.98,-0.08,0.92,0.37,-5.37,163.00,-2709.00,932.00
11:47:23 07/04/2014,0.31,-0.35,-0.64,0.61,0.01,-0.99,-0.08,0.61,0.49,-5.43,163.00,-2709.00,932.00
11:47:24 07/04/2014,0.31,-0.35,-0.64,0.61,0.01,-0.99,-0.08,0.43,0.49,-5.49,163.00,-2709.00,932.00
11:47:24 07/04/2014,0.31,-0.35,-0.64,0.61,0.01,-0.99,-0.08,0.18,0.49,-5.49,163.00,-2709.00,932.00
11:47:24 07/04/2014,0.31,-0.35,-0.64,0.61,0.02,-0.99,-0.07,0.00,0.61,-5.43,163.00,-2709.00,932.00
11:47:24 07/04/2014,0.31,-0.35,-0.64,0.61,0.01,-0.99,-0.08,-0.18,0.55,-5.43,163.00,-2709.00,932.00
11:47:24 07/04/2014,0.31,-0.35,-0.64,0.61,0.01,-0.99,-0.09,-0.37,0.55,-5.49,163.00,-2709.00,932.00
11:47:24 07/04/2014,0.31,-0.35,-0.64,0.61,-0.00,-0.99,-0.09,-0.61,0.67,-5.49,163.00,-2709.00,932.00
11:47:24 07/04/2014,0.31,-0.35,-0.64,0.61,0.00,-0.98,-0.08,-0.79,0.67,-5.49,163.00,-2709.00,932.00
11:47:24 07/04/2014,0.31,-0.35,-0.64,0.61,-0.00,-0.98,-0.09,-0.92,0.73,-5.49,163.00,-2709.00,932.00
11:47:24 07/04/2014,0.31,-0.35,-0.64,0.61,-0.00,-0.98,-0.09,-1.04,0.73,-5.49,163.00,-2709.00,932.00
11:47:24 07/04/2014,0.31,-0.35,-0.64,0.61,0.00,-0.98,-0.09,-1.22,0.55,-5.49,163.00,-2709.00,932.00
11:47:24 07/04/2014,0.31,-0.35,-0.64,0.61,0.00,-0.98,-0.10,-1.40,0.55,-5.43,163.00,-2709.00,932.00
11:47:24 07/04/2014,0.31,-0.35,-0.64,0.61,0.00,-0.98,-0.10,-1.46,0.55,-5.49,163.00,-2709.00,932.00
11:47:24 07/04/2014,0.31,-0.35,-0.64,0.61,0.00,-0.98,-0.10,-1.59,0.49,-5.49,163.00,-2709.00,932.00
11:47:24 07/04/2014,0.31,-0.35,-0.64,0.61,0.00,-0.98,-0.11,-1.65,0.43,-5.49,163.00,-2709.00,932.00
11:47:24 07/04/2014,0.31,-0.35,-0.64,0.61,0.00,-0.98,-0.11,-1.71,0.49,-5.49,163.00,-2709.00,932.00
11:47:24 07/04/2014,0.31,-0.35,-0.64,0.61,0.00,-0.98,-0.11,-1.77,0.31,-5.49,196.00,-2804.00,947.00
11:47:24 07/04/2014,0.31,-0.35,-0.64,0.61,0.00,-0.98,-0.12,-1.83,0.24,-5.49,196.00,-2804.00,947.00
11:47:24 07/04/2014,0.31,-0.35,-0.64,0.61,0.00,-0.99,-0.10,-1.89,0.18,-5.49,196.00,-2804.00,947.00
11:47:24 07/04/2014,0.31,-0.35,-0.64,0.61,0.01,-0.98,-0.12,-1.95,0.18,-5.49,196.00,-2804.00,947.00
11:47:24 07/04/2014,0.31,-0.35,-0.64,0.61,0.07,-0.95,-0.11,-2.01,0.43,-5.25,196.00,-2804.00,947.00
11:47:24 07/04/2014,0.31,-0.35,-0.64,0.61,0.01,-0.83,-0.23,-1.40,1.16,-3.54,196.00,-2804.00,947.00
11:47:24 07/04/2014,0.31,-0.35,-0.64,0.60,0.09,-0.91,-0.24,-1.71,0.00,-0.49,196.00,-2804.00,947.00
11:47:24 07/04/2014,0.31,-0.35,-0.64,0.60,0.09,-1.02,-0.11,-2.50,0.79,2.81,196.00,-2804.00,947.00
11:47:24 07/04/2014,0.31,-0.35,-0.64,0.60,0.06,-1.01,0.08,-4.21,1.83,5.43,196.00,-2804.00,947.00
11:47:24 07/04/2014,0.31,-0.35,-0.64,0.60,0.06,-1.02,-0.17,-2.26,-1.83,7.75,196.00,-2804.00,947.00
11:47:24 07/04/2014,0.31,-0.35,-0.64,0.61,0.03,-1.03,-0.31,0.98,-9.64,10.13,196.00,-2804.00,947.00
11:47:24 07/04/2014,0.31,-0.35,-0.64,0.61,0.09,-1.02,-0.31,1.95,-14.65,12.33,196.00,-2804.00,947.00
11:47:24 07/04/2014,0.31,-0.35,-0.64,0.61,0.08,-0.99,-0.42,4.15,-10.31,14.53,196.00,-2804.00,947.00
11:47:24 07/04/2014,0.31,-0.35,-0.64,0.61,0.10,-0.92,-0.35,6.04,-4.33,16.24,196.00,-2804.00,947.00
11:47:24 07/04/2014,0.31,-0.35,-0.64,0.61,0.11,-0.94,-0.19,1.22,0.49,18.13,196.00,-2804.00,947.00
11:47:24 07/04/2014,0.31,-0.35,-0.64,0.61,0.14,-0.94,-0.03,-1.10,5.68,19.59,196.00,-2804.00,947.00
11:47:24 07/04/2014,0.31,-0.35,-0.64,0.61,0.11,-1.00,-0.08,-2.87,9.46,21.06,196.00,-2804.00,947.00
11:47:24 07/04/2014,0.31,-0.36,-0.64,0.61,0.10,-1.03,-0.07,-2.50,4.58,22.52,196.00,-2804.00,947.00
11:47:24 07/04/2014,0.30,-0.36,-0.64,0.61,0.07,-1.03,-0.22,-1.89,-1.22,24.60,196.00,-2804.00,947.00
11:47:24 07/04/2014,0.30,-0.36,-0.64,0.61,0.05,-1.01,-0.22,0.06,-4.33,26.49,163.00,-2678.00,901.00
11:47:24 07/04/2014,0.30,-0.36,-0.64,0.61,0.04,-1.02,-0.24,-0.49,-2.75,28.26,163.00,-2678.00,901.00
11:47:24 07/04/2014,0.30,-0.36,-0.64,0.61,0.04,-1.01,-0.12,-0.49,-1.40,29.79,163.00,-2678.00,901.00
11:47:24 07/04/2014,0.30,-0.36,-0.64,0.61,0.08,-0.91,-0.02,-1.95,0.85,31.19,163.00,-2678.00,901.00
11:47:24 07/04/2014,0.30,-0.36,-0.64,0.61,0.10,-0.96,-0.00,-5.68,-1.34,33.26,163.00,-2678.00,901.00
11:47:24 07/04/2014,0.30,-0.36,-0.64,0.61,0.08,-0.90,-0.10,-0.37,-5.92,34.79,163.00,-2678.00,901.00
11:47:24 07/04/2014,0.30,-0.36,-0.64,0.61,0.07,-0.90,-0.21,0.73,-8.12,36.74,163.00,-2678.00,901.00
11:47:24 07/04/2014,0.30,-0.36,-0.64,0.61,0.07,-0.91,-0.26,1.95,-9.34,38.57,163.00,-2678.00,901.00
11:47:24 07/04/2014,0.30,-0.36,-0.64,0.61,0.07,-0.95,-0.31,0.92,-9.03,40.53,163.00,-2678.00,901.00
11:47:24 07/04/2014,0.29,-0.36,-0.64,0.61,0.09,-0.98,-0.19,0.49,-6.71,41.93,163.00,-2678.00,901.00
11:47:24 07/04/2014,0.29,-0.37,-0.64,0.61,0.12,-1.03,-0.16,-0.49,-2.93,43.52,163.00,-2678.00,901.00
11:47:24 07/04/2014,0.29,-0.37,-0.64,0.61,0.14,-1.04,-0.06,0.67,-2.50,44.74,163.00,-2678.00,901.00
11:47:24 07/04/2014,0.29,-0.37,-0.63,0.61,0.14,-1.04,-0.13,0.55,-3.17,46.45,163.00,-2678.00,901.00
11:47:24 07/04/2014,0.29,-0.37,-0.63,0.61,0.13,-1.02,-0.20,1.16,-5.86,48.03,163.00,-2678.00,901.00
11:47:24 07/04/2014,0.29,-0.37,-0.63,0.62,0.13,-0.99,-0.22,1.46,-5.55,49.74,163.00,-2678.00,901.00
11:47:24 07/04/2014,0.29,-0.37,-0.63,0.62,0.14,-0.97,-0.19,1.22,-4.82,51.33,163.00,-2678.00,901.00
11:47:24 07/04/2014,0.28,-0.37,-0.63,0.62,0.15,-0.95,-0.14,0.79,-3.72,53.04,163.00,-2678.00,901.00
11:47:24 07/04/2014,0.28,-0.37,-0.63,0.62,0.16,-0.95,-0.09,0.49,-3.78,54.69,163.00,-2678.00,901.00
11:47:24 07/04/2014,0.28,-0.38,-0.63,0.62,0.16,-0.96,-0.05,-0.12,-3.54,56.34,163.00,-2678.00,901.00
11:47:24 07/04/2014,0.28,-0.38,-0.63,0.62,0.16,-0.98,-0.04,-0.67,-4.15,58.23,311.00,-2709.00,932.00
11:47:24 07/04/2014,0.28,-0.38,-0.63,0.62,0.14,-0.99,-0.13,0.31,-6.84,59.88,311.00,-2709.00,932.00
11:47:24 07/04/2014,0.28,-0.38,-0.63,0.62,0.14,-0.99,-0.14,0.49,-7.45,61.71,311.00,-2709.00,932.00
11:47:24 07/04/2014,0.27,-0.38,-0.63,0.62,0.15,-1.00,-0.17,0.24,-7.32,63.66,311.00,-2709.00,932.00
11:47:24 07/04/2014,0.27,-0.38,-0.63,0.62,0.16,-1.00,-0.16,-0.06,-6.77,65.55,311.00,-2709.00,932.00
11:47:24 07/04/2014,0.27,-0.39,-0.62,0.62,0.18,-0.99,-0.08,-0.24,-7.08,67.44,311.00,-2709.00,932.00
11:47:24 07/04/2014,0.27,-0.39,-0.62,0.62,0.20,-0.99,-0.08,-0.37,-7.26,69.46,311.00,-2709.00,932.00
11:47:24 07/04/2014,0.27,-0.39,-0.62,0.63,0.21,-0.98,-0.08,-0.18,-8.54,71.23,311.00,-2709.00,932.00
11:47:24 07/04/2014,0.26,-0.39,-0.62,0.63,0.21,-0.98,-0.13,-0.37,-9.28,73.18,311.00,-2709.00,932.00
11:47:24 07/04/2014,0.26,-0.39,-0.62,0.63,0.23,-0.98,-0.13,-0.37,-10.07,75.01,311.00,-2709.00,932.00
11:47:24 07/04/2014,0.26,-0.39,-0.62,0.63,0.24,-0.98,-0.17,-0.55,-9.70,77.03,311.00,-2709.00,932.00
11:47:24 07/04/2014,0.26,-0.40,-0.62,0.63,0.25,-0.98,-0.19,-0.67,-9.58,79.04,311.00,-2709.00,932.00
11:47:24 07/04/2014,0.25,-0.40,-0.62,0.63,0.25,-0.99,-0.13,-0.79,-9.03,81.05,311.00,-2709.00,932.00
11:47:24 07/04/2014,0.25,-0.40,-0.61,0.63,0.25,-1.00,-0.14,-0.85,-9.40,83.01,311.00,-2709.00,932.00
11:47:24 07/04/2014,0.25,-0.40,-0.61,0.63,0.26,-1.00,-0.12,-0.85,-9.77,85.08,311.00,-2709.00,932.00
11:47:24 07/04/2014,0.25,-0.40,-0.61,0.63,0.26,-1.00,-0.14,-0.85,-10.86,87.10,311.00,-2709.00,932.00
11:47:24 07/04/2014,0.24,-0.41,-0.61,0.64,0.27,-1.00,-0.13,-0.85,-11.35,89.17,311.00,-2709.00,932.00
11:47:24 07/04/2014,0.24,-0.41,-0.61,0.64,0.28,-0.99,-0.17,-0.85,-11.54,91.31,311.00,-2709.00,932.00
11:47:24 07/04/2014,0.24,-0.41,-0.61,0.64,0.28,-0.98,-0.16,-0.85,-11.11,93.57,311.00,-2709.00,932.00
11:47:24 07/04/2014,0.23,-0.41,-0.61,0.64,0.29,-0.97,-0.16,-1.04,-10.99,95.46,393.00,-2741.00,932.00
11:47:24 07/04/2014,0.23,-0.42,-0.60,0.64,0.29,-0.98,-0.13,-1.16,-10.68,97.53,393.00,-2741.00,932.00
11:47:24 07/04/2014,0.23,-0.42,-0.60,0.64,0.30,-0.98,-0.14,-1.34,-10.93,99.55,393.00,-2741.00,932.00
11:47:24 07/04/2014,0.22,-0.42,-0.60,0.64,0.31,-0.97,-0.12,-1.46,-11.78,101.56,393.00,-2741.00,932.00
11:47:24 07/04/2014,0.22,-0.42,-0.60,0.64,0.33,-0.98,-0.11,-1.59,-12.51,103.52,393.00,-2741.00,932.00
11:47:24 07/04/2014,0.22,-0.42,-0.60,0.64,0.34,-0.98,-0.13,-1.71,-12.88,105.65,393.00,-2741.00,932.00
11:47:24 07/04/2014,0.21,-0.43,-0.60,0.65,0.35,-0.98,-0.15,-1.77,-13.18,107.73,393.00,-2741.00,932.00
11:47:24 07/04/2014,0.21,-0.43,-0.59,0.65,0.36,-0.98,-0.13,-1.83,-13.55,109.74,393.00,-2741.00,932.00
11:47:24 07/04/2014,0.21,-0.43,-0.59,0.65,0.37,-0.98,-0.10,-1.83,-13.37,111.82,393.00,-2741.00,932.00
11:47:24 07/04/2014,0.20,-0.43,-0.59,0.65,0.37,-0.98,-0.15,-1.83,-13.55,114.01,393.00,-2741.00,932.00
11:47:24 07/04/2014,0.20,-0.44,-0.59,0.65,0.40,-0.98,-0.13,-2.01,-13.98,116.03,393.00,-2741.00,932.00
11:47:24 07/04/2014,0.20,-0.44,-0.59,0.65,0.41,-0.98,-0.12,-2.32,-14.65,118.10,393.00,-2741.00,932.00
11:47:24 07/04/2014,0.19,-0.44,-0.58,0.65,0.42,-0.97,-0.13,-2.62,-14.77,120.36,393.00,-2741.00,932.00
11:47:24 07/04/2014,0.19,-0.45,-0.58,0.65,0.42,-0.97,-0.16,-2.75,-15.44,122.50,393.00,-2741.00,932.00
11:47:24 07/04/2014,0.18,-0.45,-0.58,0.66,0.43,-0.97,-0.13,-2.99,-15.62,124.63,393.00,-2741.00,932.00
11:47:24 07/04/2014,0.18,-0.45,-0.58,0.66,0.44,-0.97,-0.15,-3.11,-15.87,126.83,393.00,-2741.00,932.00
11:47:24 07/04/2014,0.18,-0.45,-0.57,0.66,0.45,-0.96,-0.15,-3.23,-15.75,129.03,393.00,-2741.00,932.00
11:47:24 07/04/2014,0.17,-0.46,-0.57,0.66,0.47,-0.96,-0.13,-3.36,-16.36,131.16,770.00,-2804.00,1161.00
11:47:24 07/04/2014,0.17,-0.46,-0.57,0.66,0.48,-0.96,-0.11,-3.54,-16.78,133.24,770.00,-2804.00,1161.00
11:47:24 07/04/2014,0.16,-0.46,-0.57,0.66,0.49,-0.96,-0.13,-3.66,-17.40,135.31,770.00,-2804.00,1161.00
11:47:24 07/04/2014,0.16,-0.47,-0.56,0.66,0.49,-0.96,-0.14,-3.85,-17.58,137.45,770.00,-2804.00,1161.00
11:47:24 07/04/2014,0.15,-0.47,-0.56,0.66,0.50,-0.96,-0.14,-4.15,-18.31,139.34,770.00,-2804.00,1161.00
11:47:24 07/04/2014,0.15,-0.47,-0.56,0.67,0.52,-0.95,-0.11,-4.33,-18.31,141.42,770.00,-2804.00,1161.00
11:47:24 07/04/2014,0.15,-0.47,-0.56,0.67,0.52,-0.95,-0.13,-4.27,-18.31,143.55,770.00,-2804.00,1161.00
11:47:24 07/04/2014,0.14,-0.48,-0.55,0.67,0.54,-0.94,-0.12,-4.27,-18.37,145.57,770.00,-2804.00,1161.00
11:47:24 07/04/2014,0.14,-0.48,-0.55,0.67,0.55,-0.93,-0.11,-4.52,-18.74,147.58,770.00,-2804.00,1161.00
11:47:24 07/04/2014,0.13,-0.48,-0.55,0.67,0.55,-0.93,-0.11,-4.76,-18.92,149.66,770.00,-2804.00,1161.00
11:47:24 07/04/2014,0.13,-0.49,-0.55,0.67,0.56,-0.93,-0.11,-5.00,-19.53,151.61,770.00,-2804.00,1161.00
11:47:24 07/04/2014,0.12,-0.49,-0.54,0.67,0.58,-0.92,-0.12,-5.25,-20.02,153.63,770.00,-2804.00,1161.00
11:47:24 07/04/2014,0.12,-0.49,-0.54,0.67,0.59,-0.92,-0.14,-5.43,-20.39,155.64,770.00,-2804.00,1161.00
11:47:24 07/04/2014,0.11,-0.50,-0.54,0.67,0.60,-0.91,-0.15,-5.74,-20.51,157.65,770.00,-2804.00,1161.00
11:47:24 07/04/2014,0.10,-0.50,-0.53,0.68,0.61,-0.91,-0.14,-6.10,-20.45,159.61,770.00,-2804.00,1161.00
11:47:24 07/04/2014,0.10,-0.50,-0.53,0.68,0.63,-0.91,-0.11,-6.29,-20.51,161.56,770.00,-2804.00,1161.00
11:47:24 07/04/2014,0.09,-0.51,-0.53,0.68,0.64,-0.91,-0.09,-6.23,-20.69,163.51,770.00,-2804.00,1161.00
11:47:24 07/04/2014,0.09,-0.51,-0.52,0.68,0.65,-0.90,-0.11,-5.98,-21.06,165.47,868.00,-2741.00,1329.00
11:47:24 07/04/2014,0.08,-0.51,-0.52,0.68,0.67,-0.88,-0.10,-5.86,-21.55,167.36,868.00,-2741.00,1329.00
11:47:24 07/04/2014,0.08,-0.51,-0.52,0.68,0.68,-0.87,-0.14,-5.98,-22.28,169.25,868.00,-2741.00,1329.00
11:47:24 07/04/2014,0.07,-0.52,-0.51,0.68,0.68,-0.86,-0.15,-6.35,-22.46,171.08,868.00,-2741.00,1329.00
11:47:24 07/04/2014,0.07,-0.52,-0.51,0.68,0.70,-0.86,-0.14,-6.77,-22.64,172.91,868.00,-2741.00,1329.00
11:47:24 07/04/2014,0.06,-0.52,-0.51,0.68,0.71,-0.86,-0.11,-7.02,-22.58,174.80,868.00,-2741.00,1329.00
11:47:24 07/04/2014,0.05,-0.53,-0.50,0.68,0.72,-0.86,-0.11,-7.02,-23.01,176.70,868.00,-2741.00,1329.00
11:47:24 07/04/2014,0.05,-0.53,-0.50,0.68,0.74,-0.84,-0.11,-7.08,-23.25,178.59,868.00,-2741.00,1329.00
11:47:24 07/04/2014,0.04,-0.53,-0.49,0.69,0.74,-0.83,-0.15,-7.51,-23.74,180.42,868.00,-2741.00,1329.00
11:47:24 07/04/2014,0.04,-0.54,-0.49,0.69,0.76,-0.83,-0.12,-8.12,-24.05,182.31,868.00,-2741.00,1329.00
11:47:24 07/04/2014,0.03,-0.54,-0.49,0.69,0.77,-0.82,-0.10,-8.42,-24.54,184.14,868.00,-2741.00,1329.00
11:47:24 07/04/2014,0.02,-0.54,-0.48,0.69,0.78,-0.81,-0.09,-8.36,-24.54,186.16,868.00,-2741.00,1329.00
11:47:24 07/04/2014,0.02,-0.55,-0.48,0.69,0.78,-0.81,-0.10,-8.12,-24.66,188.11,868.00,-2741.00,1329.00
11:47:24 07/04/2014,0.01,-0.55,-0.47,0.69,0.79,-0.79,-0.14,-8.00,-24.60,190.06,868.00,-2741.00,1329.00
11:47:24 07/04/2014,0.00,-0.55,-0.47,0.69,0.82,-0.78,-0.12,-8.24,-24.78,191.89,868.00,-2741.00,1329.00
11:47:24 07/04/2014,-0.00,-0.56,-0.46,0.69,0.83,-0.77,-0.08,-8.73,-25.15,193.66,868.00,-2741.00,1329.00
11:47:24 07/04/2014,-0.01,-0.56,-0.46,0.69,0.84,-0.76,-0.11,-9.16,-25.57,195.50,868.00,-2741.00,1329.00
11:47:24 07/04/2014,-0.02,-0.56,-0.46,0.69,0.85,-0.74,-0.14,-9.58,-25.88,197.27,1163.00,-2363.00,1008.00
11:47:24 07/04/2014,-0.02,-0.57,-0.45,0.69,0.86,-0.74,-0.10,-9.95,-26.31,198.97,1163.00,-2363.00,1008.00
11:47:24 07/04/2014,-0.03,-0.57,-0.45,0.69,0.87,-0.72,-0.10,-10.19,-26.86,200.68,1163.00,-2363.00,1008.00
11:47:24 07/04/2014,-0.04,-0.57,-0.44,0.69,0.88,-0.71,-0.09,-10.31,-26.86,202.45,1163.00,-2363.00,1008.00
11:47:24 07/04/2014,-0.04,-0.58,-0.44,0.69,0.88,-0.70,-0.09,-10.44,-26.73,204.22,1163.00,-2363.00,1008.00
11:47:24 07/04/2014,-0.05,-0.58,-0.43,0.69,0.89,-0.69,-0.12,-10.80,-26.79,205.87,1163.00,-2363.00,1008.00
11:47:24 07/04/2014,-0.06,-0.58,-0.43,0.69,0.91,-0.68,-0.10,-11.23,-26.86,207.58,1163.00,-2363.00,1008.00
11:47:24 07/04/2014,-0.06,-0.58,-0.42,0.69,0.91,-0.67,-0.10,-11.60,-27.04,209.17,1163.00,-2363.00,1008.00
11:47:24 07/04/2014,-0.07,-0.59,-0.42,0.69,0.93,-0.66,-0.09,-11.66,-27.65,210.69,1163.00,-2363.00,1008.00
11:47:24 07/04/2014,-0.08,-0.59,-0.41,0.69,0.94,-0.65,-0.09,-11.72,-27.89,212.28,1163.00,-2363.00,1008.00
11:47:24 07/04/2014,-0.09,-0.59,-0.41,0.69,0.93,-0.64,-0.09,-11.78,-28.14,213.87,1163.00,-2363.00,1008.00
11:47:24 07/04/2014,-0.09,-0.60,-0.40,0.69,0.95,-0.62,-0.07,-11.90,-27.83,215.45,1163.00,-2363.00,1008.00
11:47:24 07/04/2014,-0.10,-0.60,-0.40,0.69,0.95,-0.60,-0.11,-12.21,-27.47,217.10,1163.00,-2363.00,1008.00
11:47:24 07/04/2014,-0.11,-0.60,-0.39,0.69,0.96,-0.58,-0.09,-12.45,-27.77,218.63,1163.00,-2363.00,1008.00
11:47:24 07/04/2014,-0.11,-0.60,-0.38,0.69,0.96,-0.56,-0.08,-12.94,-28.14,220.09,1163.00,-2363.00,1008.00
11:47:24 07/04/2014,-0.12,-0.61,-0.38,0.69,0.97,-0.56,-0.06,-13.49,-28.02,221.68,1163.00,-2363.00,1008.00
11:47:24 07/04/2014,-0.13,-0.61,-0.37,0.69,0.99,-0.54,-0.07,-13.12,-28.32,223.21,1163.00,-2363.00,1008.00
11:47:24 07/04/2014,-0.14,-0.61,-0.37,0.69,0.99,-0.52,-0.09,-13.55,-28.08,224.79,1851.00,-1449.00,687.00
11:47:24 07/04/2014,-0.14,-0.62,-0.36,0.69,1.01,-0.51,-0.05,-13.61,-28.75,226.14,1851.00,-1449.00,687.00
11:47:24 07/04/2014,-0.15,-0.62,-0.36,0.68,1.01,-0.50,-0.09,-13.85,-28.75,227.66,1851.00,-1449.00,687.00
11:47:24 07/04/2014,-0.16,-0.62,-0.35,0.68,1.02,-0.48,-0.07,-14.34,-29.05,229.00,1851.00,-1449.00,687.00
11:47:24 07/04/2014,-0.17,-0.62,-0.34,0.68,1.02,-0.45,-0.09,-13.67,-29.97,230.35,1851.00,-1449.00,687.00
11:47:24 07/04/2014,-0.18,-0.63,-0.34,0.68,1.03,-0.45,-0.10,-14.77,-30.21,231.57,1851.00,-1449.00,687.00
11:47:24 07/04/2014,-0.18,-0.63,-0.33,0.68,1.03,-0.44,-0.04,-15.32,-29.79,232.73,1851.00,-1449.00,687.00
11:47:24 07/04/2014,-0.19,-0.63,-0.33,0.68,1.03,-0.41,-0.06,-14.77,-29.48,233.83,1851.00,-1449.00,687.00
11:47:24 07/04/2014,-0.20,-0.63,-0.32,0.68,1.03,-0.38,-0.07,-14.71,-29.66,235.23,1851.00,-1449.00,687.00
11:47:24 07/04/2014,-0.21,-0.63,-0.31,0.68,1.03,-0.37,-0.08,-14.95,-29.97,236.69,1851.00,-1449.00,687.00
11:47:24 07/04/2014,-0.21,-0.64,-0.31,0.67,1.03,-0.36,-0.07,-15.26,-29.91,237.79,1851.00,-1449.00,687.00
11:47:24 07/04/2014,-0.22,-0.64,-0.30,0.67,1.05,-0.33,-0.03,-16.05,-29.42,238.77,1851.00,-1449.00,687.00
11:47:24 07/04/2014,-0.23,-0.64,-0.29,0.67,1.06,-0.31,-0.07,-15.99,-29.72,239.93,1851.00,-1449.00,687.00
11:47:24 07/04/2014,-0.24,-0.64,-0.29,0.67,1.07,-0.29,-0.03,-16.48,-30.21,240.91,1851.00,-1449.00,687.00
11:47:24 07/04/2014,-0.25,-0.65,-0.28,0.67,1.07,-0.27,-0.05,-15.93,-31.01,242.00,1851.00,-1449.00,687.00
11:47:24 07/04/2014,-0.25,-0.65,-0.27,0.67,1.06,-0.26,-0.06,-16.48,-30.33,243.29,1851.00,-1449.00,687.00
11:47:24 07/04/2014,-0.26,-0.65,-0.27,0.66,1.05,-0.25,0.00,-16.91,-29.85,244.57,1851.00,-1449.00,687.00
11:47:24 07/04/2014,-0.27,-0.65,-0.26,0.66,1.05,-0.24,-0.01,-17.27,-30.27,245.48,2162.00,-252.00,886.00
11:47:24 07/04/2014,-0.28,-0.65,-0.25,0.66,1.03,-0.22,-0.04,-16.05,-31.37,245.73,2162.00,-252.00,886.00
11:47:24 07/04/2014,-0.57,-0.66,0.05,0.49,0.39,0.57,0.20,-18.62,-32.47,316.04,2162.00,-252.00,886.00
11:47:24 07/04/2014,-0.58,-0.65,0.06,0.49,0.35,0.60,0.13,-16.60,-33.51,317.08,2162.00,-252.00,886.00
11:47:24 07/04/2014,-0.58,-0.65,0.07,0.48,0.32,0.61,0.02,-16.48,-33.57,318.36,2162.00,-252.00,886.00
11:47:24 07/04/2014,-0.59,-0.65,0.08,0.47,0.30,0.59,0.12,-17.88,-33.20,319.52,2162.00,-252.00,886.00
11:47:24 07/04/2014,-0.60,-0.65,0.09,0.47,0.28,0.60,0.16,-17.40,-34.55,320.50,2162.00,-252.00,886.00
11:47:25 07/04/2014,-0.60,-0.64,0.10,0.46,0.24,0.60,0.13,-17.21,-34.73,321.90,1245.00,630.00,1024.00
11:47:25 07/04/2014,-0.61,-0.64,0.11,0.45,0.24,0.58,0.19,-16.72,-34.18,323.30,1245.00,630.00,1024.00
11:47:25 07/04/2014,-0.62,-0.64,0.12,0.44,0.19,0.61,0.16,-15.14,-34.30,324.77,1245.00,630.00,1024.00
11:47:25 07/04/2014,-0.62,-0.64,0.13,0.44,0.17,0.60,0.06,-15.01,-35.10,326.11,1245.00,630.00,1024.00
11:47:25 07/04/2014,-0.63,-0.63,0.14,0.43,0.14,0.62,0.07,-15.20,-35.77,327.33,1245.00,630.00,1024.00
11:47:25 07/04/2014,-0.64,-0.63,0.15,0.42,0.11,0.59,0.18,-17.40,-35.46,328.74,1245.00,630.00,1024.00
11:47:25 07/04/2014,-0.64,-0.63,0.16,0.41,0.08,0.60,0.16,-15.38,-36.62,329.89,1245.00,630.00,1024.00
11:47:25 07/04/2014,-0.65,-0.62,0.17,0.40,0.05,0.60,0.14,-15.26,-36.32,331.42,1245.00,630.00,1024.00
11:47:25 07/04/2014,-0.65,-0.62,0.18,0.39,0.02,0.61,0.09,-14.83,-36.56,332.64,1245.00,630.00,1024.00
11:47:25 07/04/2014,-0.66,-0.62,0.19,0.39,-0.01,0.59,0.11,-15.99,-36.62,333.98,1245.00,630.00,1024.00
11:47:25 07/04/2014,-0.67,-0.61,0.20,0.38,-0.04,0.58,0.16,-16.54,-37.23,335.27,1245.00,630.00,1024.00
11:47:25 07/04/2014,-0.67,-0.61,0.21,0.37,-0.08,0.57,0.16,-15.99,-37.54,336.67,1245.00,630.00,1024.00
11:47:25 07/04/2014,-0.68,-0.60,0.22,0.36,-0.11,0.56,0.16,-15.50,-37.84,338.13,1245.00,630.00,1024.00
11:47:25 07/04/2014,-0.68,-0.60,0.23,0.35,-0.12,0.56,0.12,-14.89,-38.51,339.48,1245.00,630.00,1024.00
11:47:25 07/04/2014,-0.69,-0.59,0.24,0.34,-0.15,0.55,0.14,-15.01,-38.21,341.06,1245.00,630.00,1024.00
11:47:25 07/04/2014,-0.69,-0.59,0.25,0.33,-0.17,0.53,0.20,-16.05,-38.82,342.47,1245.00,630.00,1024.00
11:47:25 07/04/2014,-0.70,-0.59,0.26,0.32,-0.19,0.53,0.13,-15.50,-40.10,343.99,1245.00,630.00,1024.00
11:47:25 07/04/2014,-0.70,-0.58,0.27,0.31,-0.21,0.52,0.15,-15.32,-39.61,345.76,1245.00,630.00,1024.00
11:47:25 07/04/2014,-0.71,-0.58,0.28,0.30,-0.24,0.50,0.20,-15.50,-38.94,347.66,1245.00,630.00,1024.00
11:47:25 07/04/2014,-0.71,-0.57,0.29,0.30,-0.27,0.48,0.15,-14.71,-40.83,349.24,1048.00,960.00,1115.00
11:47:25 07/04/2014,-0.72,-0.56,0.30,0.29,-0.30,0.48,0.06,-14.10,-42.30,351.01,1048.00,960.00,1115.00
11:47:25 07/04/2014,-0.72,-0.56,0.31,0.28,-0.33,0.46,0.11,-15.44,-41.14,353.15,1048.00,960.00,1115.00
11:47:25 07/04/2014,-0.72,-0.55,0.32,0.27,-0.34,0.43,0.22,-15.99,-42.11,355.10,1048.00,960.00,1115.00
11:47:25 07/04/2014,-0.73,-0.55,0.33,0.26,-0.37,0.42,0.08,-14.16,-44.62,356.81,1048.00,960.00,1115.00
11:47:25 07/04/2014,-0.73,-0.54,0.34,0.25,-0.39,0.41,0.08,-14.59,-44.31,358.89,1048.00,960.00,1115.00
11:47:25 07/04/2014,-0.73,-0.53,0.34,0.23,-0.41,0.35,0.18,-16.54,-43.52,361.08,1048.00,960.00,1115.00
11:47:25 07/04/2014,-0.74,-0.53,0.35,0.22,-0.44,0.34,0.11,-14.83,-45.78,362.98,1048.00,960.00,1115.00
11:47:25 07/04/2014,-0.74,-0.52,0.36,0.21,-0.47,0.34,0.09,-14.65,-46.20,365.11,1048.00,960.00,1115.00
11:47:25 07/04/2014,-0.74,-0.51,0.37,0.20,-0.50,0.30,0.13,-16.17,-44.92,367.49,1048.00,960.00,1115.00
11:47:25 07/04/2014,-0.75,-0.51,0.38,0.19,-0.52,0.27,0.11,-15.56,-46.87,369.38,1048.00,960.00,1115.00
11:47:25 07/04/2014,-0.75,-0.50,0.39,0.18,-0.55,0.28,0.09,-15.62,-47.91,371.28,1048.00,960.00,1115.00
11:47:25 07/04/2014,-0.75,-0.49,0.40,0.17,-0.59,0.22,0.10,-17.88,-46.39,373.60,1048.00,960.00,1115.00
11:47:25 07/04/2014,-0.75,-0.48,0.41,0.16,-0.60,0.20,0.17,-16.85,-48.28,375.37,1048.00,960.00,1115.00
11:47:25 07/04/2014,-0.76,-0.48,0.42,0.15,-0.62,0.16,0.10,-16.66,-49.62,377.50,1048.00,960.00,1115.00
11:47:25 07/04/2014,-0.76,-0.47,0.43,0.14,-0.66,0.17,0.10,-16.11,-49.44,379.82,1048.00,960.00,1115.00
11:47:25 07/04/2014,-0.76,-0.46,0.44,0.13,-0.67,0.15,0.10,-16.42,-50.66,382.69,1048.00,960.00,1115.00
11:47:25 07/04/2014,-0.76,-0.45,0.45,0.11,-0.69,0.11,0.02,-17.70,-51.51,386.47,1048.00,960.00,1115.00
11:47:25 07/04/2014,-0.76,-0.44,0.46,0.10,-0.71,0.07,0.11,-18.25,-52.37,390.99,1048.00,960.00,1115.00
11:47:25 07/04/2014,-0.76,-0.43,0.47,0.09,-0.73,0.04,0.13,-18.31,-53.47,395.14,-114.00,1417.00,1253.00
11:47:25 07/04/2014,-0.76,-0.43,0.48,0.08,-0.75,0.03,0.08,-16.72,-54.99,399.23,-114.00,1417.00,1253.00
11:47:25 07/04/2014,-0.76,-0.42,0.49,0.07,-0.75,0.00,0.04,-17.76,-55.24,404.24,-114.00,1417.00,1253.00
11:47:25 07/04/2014,-0.76,-0.41,0.50,0.05,-0.73,-0.07,0.06,-20.63,-55.24,409.18,-114.00,1417.00,1253.00
11:47:25 07/04/2014,-0.76,-0.40,0.51,0.04,-0.77,-0.09,0.13,-20.14,-56.21,413.45,-114.00,1417.00,1253.00
11:47:25 07/04/2014,-0.76,-0.39,0.51,0.03,-0.80,-0.16,0.08,-20.75,-56.15,417.05,-114.00,1417.00,1253.00
11:47:25 07/04/2014,-0.76,-0.38,0.52,0.02,-0.80,-0.22,0.05,-19.84,-57.68,419.56,-114.00,1417.00,1253.00
11:47:25 07/04/2014,-0.76,-0.37,0.53,0.00,-0.82,-0.31,0.03,-20.14,-58.47,421.57,-114.00,1417.00,1253.00
11:47:25 07/04/2014,-0.76,-0.36,0.54,-0.01,-0.85,-0.44,0.04,-22.83,-57.31,414.67,-114.00,1417.00,1253.00
11:47:25 07/04/2014,-0.76,-0.34,0.55,-0.02,-0.89,-0.37,0.06,-22.16,-57.98,409.30,-114.00,1417.00,1253.00
11:47:25 07/04/2014,-0.76,-0.33,0.56,-0.03,-0.91,-0.41,0.04,-23.38,-60.42,407.04,-114.00,1417.00,1253.00
11:47:25 07/04/2014,-0.76,-0.32,0.57,-0.05,-0.91,-0.39,-0.01,-23.13,-59.69,406.68,-114.00,1417.00,1253.00
11:47:25 07/04/2014,-0.76,-0.31,0.57,-0.06,-0.89,-0.43,-0.02,-24.17,-59.39,407.17,-114.00,1417.00,1253.00
11:47:25 07/04/2014,-0.75,-0.30,0.58,-0.07,-0.89,-0.47,0.01,-24.96,-59.27,408.02,-114.00,1417.00,1253.00
11:47:25 07/04/2014,-0.75,-0.29,0.59,-0.08,-0.91,-0.51,0.04,-25.39,-59.14,409.18,-114.00,1417.00,1253.00
11:47:25 07/04/2014,-0.75,-0.28,0.60,-0.09,-0.88,-0.54,0.02,-26.18,-60.18,410.58,-114.00,1417.00,1253.00
11:47:25 07/04/2014,-0.74,-0.27,0.60,-0.11,-0.88,-0.56,-0.08,-26.86,-61.10,412.17,-114.00,1417.00,1253.00
11:47:25 07/04/2014,-0.74,-0.26,0.61,-0.12,-0.89,-0.60,-0.04,-26.18,-61.34,413.39,-114.00,1417.00,1253.00
11:47:25 07/04/2014,-0.74,-0.24,0.62,-0.13,-0.90,-0.66,-0.04,-28.02,-63.42,414.79,-114.00,1417.00,1253.00
11:47:25 07/04/2014,-0.73,-0.23,0.62,-0.14,-0.92,-0.66,-0.10,-28.38,-62.99,416.38,-1130.00,1087.00,1268.00
11:47:25 07/04/2014,-0.73,-0.22,0.63,-0.15,-0.91,-0.73,-0.13,-28.69,-62.62,417.79,-1130.00,1087.00,1268.00
11:47:25 07/04/2014,-0.72,-0.21,0.64,-0.17,-0.92,-0.79,-0.05,-29.05,-62.62,419.07,-1130.00,1087.00,1268.00
11:47:25 07/04/2014,-0.72,-0.20,0.64,-0.18,-0.89,-0.79,-0.08,-28.81,-60.55,420.53,-1130.00,1087.00,1268.00
11:47:25 07/04/2014,-0.72,-0.18,0.65,-0.19,-0.87,-0.84,-0.17,-30.40,-63.17,422.06,-1130.00,1087.00,1268.00
11:47:25 07/04/2014,-0.71,-0.17,0.65,-0.20,-0.86,-0.86,-0.14,-28.75,-64.21,423.46,-1130.00,1087.00,1268.00
11:47:25 07/04/2014,-0.70,-0.16,0.66,-0.21,-0.83,-0.90,-0.16,-30.76,-64.58,425.17,-1130.00,1087.00,1268.00
11:47:25 07/04/2014,-0.70,-0.15,0.66,-0.23,-0.82,-0.93,-0.23,-30.52,-66.04,426.88,-1130.00,1087.00,1268.00
11:47:25 07/04/2014,-0.69,-0.13,0.67,-0.24,-0.83,-0.97,-0.22,-31.01,-68.36,428.47,-1130.00,1087.00,1268.00
11:47:25 07/04/2014,-0.69,-0.12,0.67,-0.25,-0.85,-1.02,-0.28,-30.76,-68.05,430.05,-1130.00,1087.00,1268.00
11:47:25 07/04/2014,-0.68,-0.11,0.68,-0.26,-0.83,-1.06,-0.31,-31.13,-66.16,431.46,-1130.00,1087.00,1268.00
11:47:25 07/04/2014,-0.67,-0.09,0.68,-0.27,-0.82,-1.11,-0.29,-30.64,-63.72,432.74,-1130.00,1087.00,1268.00
11:47:25 07/04/2014,-0.67,-0.08,0.69,-0.28,-0.81,-1.15,-0.28,-29.79,-60.49,434.14,-1130.00,1087.00,1268.00
11:47:25 07/04/2014,-0.66,-0.07,0.69,-0.30,-0.80,-1.20,-0.29,-30.21,-59.57,435.49,-1130.00,1087.00,1268.00
11:47:25 07/04/2014,-0.65,-0.05,0.69,-0.31,-0.76,-1.21,-0.33,-29.30,-57.68,436.77,-1130.00,1087.00,1268.00
11:47:25 07/04/2014,-0.64,-0.04,0.70,-0.32,-0.75,-1.25,-0.38,-30.82,-58.17,437.99,-1130.00,1087.00,1268.00
11:47:25 07/04/2014,-0.63,-0.03,0.70,-0.33,-0.73,-1.30,-0.24,-31.68,-58.29,439.27,-1130.00,1087.00,1268.00
11:47:25 07/04/2014,-0.63,-0.01,0.70,-0.34,-0.66,-1.34,-0.36,-32.84,-57.86,440.86,-1130.00,1087.00,1268.00
11:47:25 07/04/2014,-0.62,0.00,0.70,-0.35,-0.64,-1.38,-0.35,-31.37,-58.17,442.26,-1130.00,1087.00,1268.00
11:47:25 07/04/2014,-0.61,0.01,0.70,-0.36,-0.62,-1.40,-0.31,-30.15,-54.81,443.66,-1835.00,-330.00,1253.00
11:47:25 07/04/2014,-0.60,0.03,0.71,-0.37,-0.60,-1.44,-0.31,-31.01,-53.71,445.07,-1835.00,-330.00,1253.00
11:47:25 07/04/2014,-0.59,0.04,0.71,-0.39,-0.54,-1.44,-0.33,-30.88,-52.61,446.35,-1835.00,-330.00,1253.00
11:47:25 07/04/2014,-0.58,0.06,0.71,-0.40,-0.51,-1.48,-0.40,-32.71,-53.16,447.69,-1835.00,-330.00,1253.00
11:47:25 07/04/2014,-0.57,0.07,0.71,-0.41,-0.50,-1.51,-0.31,-31.49,-53.71,448.73,-1835.00,-330.00,1253.00
11:47:25 07/04/2014,-0.56,0.08,0.71,-0.42,-0.47,-1.56,-0.30,-31.74,-52.61,449.95,-1835.00,-330.00,1253.00
11:47:25 07/04/2014,-0.55,0.10,0.71,-0.43,-0.43,-1.56,-0.32,-31.92,-52.00,451.17,-1835.00,-330.00,1253.00
11:47:25 07/04/2014,-0.54,0.11,0.71,-0.44,-0.39,-1.58,-0.27,-30.88,-50.29,452.33,-1835.00,-330.00,1253.00
11:47:25 07/04/2014,-0.53,0.13,0.71,-0.45,-0.39,-1.60,-0.27,-30.33,-48.89,453.55,-1835.00,-330.00,1253.00
11:47:25 07/04/2014,-0.52,0.14,0.71,-0.46,-0.35,-1.65,-0.32,-30.88,-49.56,454.71,-1835.00,-330.00,1253.00
11:47:25 07/04/2014,-0.51,0.15,0.71,-0.47,-0.31,-1.63,-0.30,-28.87,-49.13,455.75,-1835.00,-330.00,1253.00
11:47:25 07/04/2014,-0.50,0.17,0.71,-0.48,-0.28,-1.64,-0.28,-27.89,-49.19,456.85,-1835.00,-330.00,1253.00
11:47:25 07/04/2014,-0.49,0.18,0.70,-0.49,-0.24,-1.67,-0.34,-29.60,-51.33,458.07,-1835.00,-330.00,1253.00
11:47:25 07/04/2014,-0.47,0.19,0.70,-0.50,-0.21,-1.68,-0.34,-28.63,-50.54,459.17,-1835.00,-330.00,1253.00
11:47:25 07/04/2014,-0.46,0.21,0.70,-0.50,-0.18,-1.68,-0.28,-28.02,-49.07,460.14,-1835.00,-330.00,1253.00
11:47:25 07/04/2014,-0.45,0.22,0.70,-0.51,-0.11,-1.68,-0.29,-27.89,-48.83,461.12,-1835.00,-330.00,1253.00
11:47:25 07/04/2014,-0.44,0.24,0.69,-0.52,-0.05,-1.69,-0.31,-27.22,-49.38,462.10,-1835.00,-330.00,1253.00
11:47:25 07/04/2014,-0.43,0.25,0.69,-0.53,-0.03,-1.71,-0.29,-26.31,-49.62,462.95,-1835.00,-330.00,1253.00
11:47:25 07/04/2014,-0.41,0.26,0.69,-0.54,0.03,-1.72,-0.26,-24.96,-49.80,463.68,-1835.00,-330.00,1253.00
11:47:25 07/04/2014,-0.40,0.28,0.68,-0.55,0.06,-1.72,-0.31,-25.39,-50.60,464.72,-1392.00,-1858.00,947.00
11:47:25 07/04/2014,-0.39,0.29,0.68,-0.55,0.10,-1.73,-0.33,-24.84,-51.45,465.52,-1392.00,-1858.00,947.00
11:47:25 07/04/2014,-0.37,0.30,0.67,-0.56,0.16,-1.70,-0.35,-23.50,-51.33,466.49,-1392.00,-1858.00,947.00
11:47:25 07/04/2014,-0.36,0.31,0.67,-0.57,0.17,-1.74,-0.36,-24.48,-52.92,467.47,-1392.00,-1858.00,947.00
11:47:25 07/04/2014,-0.35,0.33,0.66,-0.58,0.24,-1.73,-0.34,-22.95,-52.67,468.38,-1392.00,-1858.00,947.00
11:47:25 07/04/2014,-0.33,0.34,0.66,-0.58,0.31,-1.73,-0.33,-23.07,-52.25,469.30,-1392.00,-1858.00,947.00
11:47:25 07/04/2014,-0.32,0.35,0.65,-0.59,0.33,-1.76,-0.33,-23.62,-52.98,470.09,-1392.00,-1858.00,947.00
11:47:25 07/04/2014,-0.30,0.36,0.65,-0.60,0.36,-1.70,-0.27,-21.97,-52.86,470.76,-1392.00,-1858.00,947.00
11:47:25 07/04/2014,-0.29,0.38,0.64,-0.60,0.37,-1.71,-0.32,-22.22,-53.47,471.56,-1392.00,-1858.00,947.00
11:47:25 07/04/2014,-0.28,0.39,0.63,-0.61,0.40,-1.69,-0.33,-20.81,-54.26,472.17,-1392.00,-1858.00,947.00
11:47:25 07/04/2014,-0.26,0.40,0.63,-0.62,0.43,-1.66,-0.32,-19.96,-55.73,472.78,-1392.00,-1858.00,947.00
11:47:25 07/04/2014,-0.25,0.41,0.62,-0.62,0.45,-1.63,-0.31,-19.71,-56.03,473.51,-1392.00,-1858.00,947.00
11:47:25 07/04/2014,-0.23,0.42,0.61,-0.63,0.48,-1.63,-0.37,-19.78,-56.21,474.30,-1392.00,-1858.00,947.00
11:47:25 07/04/2014,-0.22,0.43,0.60,-0.63,0.51,-1.61,-0.36,-19.90,-56.40,475.10,-1392.00,-1858.00,947.00
11:47:25 07/04/2014,-0.20,0.45,0.60,-0.64,0.52,-1.61,-0.37,-20.26,-58.04,475.77,-1392.00,-1858.00,947.00
11:47:25 07/04/2014,-0.19,0.46,0.59,-0.64,0.55,-1.61,-0.26,-19.53,-58.23,476.44,-1392.00,-1858.00,947.00
11:47:25 07/04/2014,-0.17,0.47,0.58,-0.65,0.60,-1.57,-0.26,-19.47,-57.80,477.36,-1392.00,-1858.00,947.00
11:47:25 07/04/2014,-0.16,0.48,0.57,-0.65,0.65,-1.55,-0.36,-19.78,-57.43,478.15,-1392.00,-1858.00,947.00
11:47:25 07/04/2014,-0.14,0.49,0.56,-0.65,0.67,-1.53,-0.35,-18.92,-59.51,478.64,-1392.00,-1858.00,947.00
11:47:25 07/04/2014,-0.12,0.50,0.55,-0.66,0.71,-1.50,-0.28,-18.68,-60.55,479.13,147.00,-2725.00,917.00
11:47:25 07/04/2014,-0.11,0.51,0.54,-0.66,0.75,-1.48,-0.29,-19.47,-60.55,479.80,147.00,-2725.00,917.00
11:47:25 07/04/2014,-0.09,0.52,0.53,-0.66,0.77,-1.46,-0.31,-19.96,-59.51,480.65,147.00,-2725.00,917.00
11:47:25 07/04/2014,-0.08,0.53,0.52,-0.67,0.80,-1.41,-0.26,-20.02,-60.00,481.32,147.00,-2725.00,917.00
11:47:25 07/04/2014,-0.06,0.54,0.51,-0.67,0.83,-1.40,-0.25,-20.32,-62.01,481.87,147.00,-2725.00,917.00
11:47:25 07/04/2014,-0.05,0.54,0.50,-0.67,0.85,-1.36,-0.21,-20.39,-62.81,482.60,147.00,-2725.00,917.00
11:47:25 07/04/2014,-0.03,0.55,0.49,-0.67,0.87,-1.31,-0.13,-20.57,-61.77,483.46,147.00,-2725.00,917.00
11:47:25 07/04/2014,-0.01,0.56,0.48,-0.67,0.90,-1.29,-0.25,-22.03,-62.07,484.13,147.00,-2725.00,917.00
11:47:25 07/04/2014,0.00,0.57,0.47,-0.68,0.92,-1.25,-0.20,-21.79,-62.68,484.56,147.00,-2725.00,917.00
11:47:25 07/04/2014,0.02,0.58,0.46,-0.68,0.93,-1.22,-0.16,-22.52,-63.54,484.92,147.00,-2725.00,917.00
11:47:25 07/04/2014,0.03,0.59,0.44,-0.68,0.95,-1.18,-0.17,-23.19,-63.17,485.29,147.00,-2725.00,917.00
11:47:25 07/04/2014,0.05,0.59,0.43,-0.68,0.98,-1.12,-0.12,-23.56,-62.07,485.78,147.00,-2725.00,917.00
11:47:25 07/04/2014,0.07,0.60,0.42,-0.68,0.99,-1.09,-0.21,-25.15,-61.65,486.33,147.00,-2725.00,917.00
11:47:25 07/04/2014,0.08,0.61,0.41,-0.68,0.98,-1.04,-0.16,-25.94,-60.55,486.82,147.00,-2725.00,917.00
11:47:25 07/04/2014,0.10,0.61,0.40,-0.68,1.00,-1.03,-0.13,-27.28,-61.16,487.12,147.00,-2725.00,917.00
11:47:25 07/04/2014,0.11,0.62,0.38,-0.67,1.02,-0.97,-0.08,-27.83,-60.85,487.49,147.00,-2725.00,917.00
11:47:25 07/04/2014,0.13,0.63,0.37,-0.67,1.02,-0.94,-0.11,-28.08,-62.07,487.79,147.00,-2725.00,917.00
11:47:25 07/04/2014,0.15,0.63,0.36,-0.67,1.03,-0.87,-0.05,-27.40,-61.95,488.04,147.00,-2725.00,917.00
11:47:25 07/04/2014,0.16,0.64,0.35,-0.67,1.04,-0.83,-0.12,-27.65,-62.99,488.34,147.00,-2725.00,917.00
11:47:25 07/04/2014,0.18,0.64,0.33,-0.67,1.04,-0.80,-0.13,-27.47,-62.81,488.65,1228.00,-2284.00,901.00
11:47:25 07/04/2014,0.19,0.65,0.32,-0.67,1.02,-0.75,-0.20,-28.44,-63.11,488.83,1228.00,-2284.00,901.00
11:47:25 07/04/2014,0.21,0.65,0.31,-0.66,1.03,-0.72,-0.20,-30.09,-62.68,488.95,1228.00,-2284.00,901.00
11:47:25 07/04/2014,0.23,0.66,0.29,-0.66,1.02,-0.68,-0.12,-32.41,-59.75,489.26,1228.00,-2284.00,901.00
11:47:25 07/04/2014,0.24,0.66,0.28,-0.66,1.02,-0.63,-0.08,-32.78,-58.90,489.56,1228.00,-2284.00,901.00
11:47:25 07/04/2014,0.26,0.66,0.26,-0.65,0.99,-0.59,-0.12,-33.81,-58.53,490.05,1228.00,-2284.00,901.00
11:47:25 07/04/2014,0.27,0.67,0.25,-0.65,0.96,-0.56,-0.14,-34.79,-57.86,490.48,1228.00,-2284.00,901.00
11:47:25 07/04/2014,0.29,0.67,0.24,-0.64,0.95,-0.54,-0.09,-35.03,-59.20,490.54,1228.00,-2284.00,901.00
11:47:25 07/04/2014,0.30,0.67,0.22,-0.64,0.96,-0.51,-0.00,-33.33,-57.07,490.42,1228.00,-2284.00,901.00
11:47:25 07/04/2014,0.32,0.68,0.21,-0.63,0.93,-0.47,-0.04,-31.49,-53.83,489.75,1228.00,-2284.00,901.00
11:47:25 07/04/2014,0.33,0.68,0.19,-0.63,0.92,-0.44,-0.08,-30.64,-53.89,488.95,1228.00,-2284.00,901.00
11:47:25 07/04/2014,0.35,0.68,0.18,-0.62,0.90,-0.39,-0.10,-30.64,-53.59,488.04,1228.00,-2284.00,901.00
11:47:25 07/04/2014,0.36,0.68,0.17,-0.61,0.87,-0.33,-0.12,-31.92,-54.20,486.82,1228.00,-2284.00,901.00
11:47:25 07/04/2014,0.38,0.68,0.15,-0.61,0.83,-0.35,-0.04,-34.30,-53.89,485.96,1228.00,-2284.00,901.00
11:47:25 07/04/2014,0.39,0.68,0.14,-0.60,0.79,-0.30,-0.02,-34.42,-50.84,484.50,1228.00,-2284.00,901.00
11:47:25 07/04/2014,0.40,0.69,0.12,-0.59,0.77,-0.28,-0.06,-34.79,-47.61,483.28,1228.00,-2284.00,901.00
11:47:25 07/04/2014,0.42,0.69,0.11,-0.59,0.76,-0.23,0.08,-36.01,-48.03,482.85,1228.00,-2284.00,901.00
11:47:25 07/04/2014,0.43,0.69,0.09,-0.58,0.72,-0.19,-0.03,-32.96,-54.14,483.09,1228.00,-2284.00,901.00
11:47:25 07/04/2014,0.44,0.69,0.08,-0.57,0.68,-0.16,-0.04,-33.45,-56.95,483.15,1228.00,-2284.00,901.00
11:47:25 07/04/2014,0.46,0.69,0.06,-0.56,0.69,-0.12,0.10,-36.38,-55.85,482.91,2031.00,189.00,932.00
11:47:25 07/04/2014,0.47,0.68,0.05,-0.56,0.61,-0.12,0.03,-35.28,-57.50,483.64,2031.00,189.00,932.00
11:47:25 07/04/2014,0.48,0.68,0.04,-0.55,0.62,-0.07,0.06,-34.48,-57.74,483.52,2031.00,189.00,932.00
11:47:25 07/04/2014,0.50,0.68,0.02,-0.54,0.59,-0.06,-0.05,-34.36,-56.46,484.56,2031.00,189.00,932.00
11:47:25 07/04/2014,0.51,0.68,0.01,-0.53,0.51,-0.01,0.01,-33.75,-55.66,485.60,2031.00,189.00,932.00
11:47:25 07/04/2014,0.52,0.68,-0.01,-0.52,0.56,0.04,0.10,-35.52,-57.07,489.20,2031.00,189.00,932.00
11:47:25 07/04/2014,0.53,0.68,-0.02,-0.51,0.51,0.07,-0.04,-33.33,-58.65,496.09,2031.00,189.00,932.00
11:47:25 07/04/2014,0.54,0.67,-0.04,-0.50,0.45,0.04,0.11,-32.96,-57.62,500.43,2031.00,189.00,932.00
11:47:25 07/04/2014,0.56,0.67,-0.06,-0.49,0.41,0.05,0.13,-34.61,-57.01,503.54,2031.00,189.00,932.00
11:47:25 07/04/2014,0.57,0.67,-0.07,-0.48,0.33,0.03,0.00,-34.30,-56.46,505.55,2031.00,189.00,932.00
11:47:25 07/04/2014,0.58,0.66,-0.09,-0.47,0.29,0.03,0.02,-33.20,-55.66,507.02,2031.00,189.00,932.00
11:47:25 07/04/2014,0.59,0.66,-0.10,-0.46,0.28,0.03,0.08,-33.81,-55.11,508.48,2031.00,189.00,932.00
11:47:25 07/04/2014,0.60,0.65,-0.12,-0.45,0.24,0.04,0.05,-34.00,-56.15,509.89,2031.00,189.00,932.00
11:47:25 07/04/2014,0.61,0.65,-0.13,-0.43,0.19,0.06,-0.06,-32.41,-58.04,510.99,2031.00,189.00,932.00
11:47:25 07/04/2014,0.62,0.64,-0.15,-0.42,0.15,0.07,0.06,-33.26,-56.58,512.27,2031.00,189.00,932.00
11:47:25 07/04/2014,0.63,0.64,-0.16,-0.41,0.12,0.03,0.15,-35.34,-55.97,513.92,2031.00,189.00,932.00
11:47:25 07/04/2014,0.64,0.63,-0.18,-0.40,0.06,0.05,0.06,-32.41,-57.19,514.89,2031.00,189.00,932.00
11:47:25 07/04/2014,0.65,0.63,-0.19,-0.39,-0.00,0.07,-0.04,-31.49,-57.31,515.93,2031.00,189.00,932.00
11:47:25 07/04/2014,0.66,0.62,-0.21,-0.37,-0.06,0.04,0.06,-34.18,-55.48,517.09,2031.00,189.00,932.00
11:47:25 07/04/2014,0.67,0.61,-0.22,-0.36,-0.05,0.02,0.06,-34.42,-57.80,517.70,950.00,1008.00,1161.00
11:47:25 07/04/2014,0.68,0.61,-0.24,-0.35,-0.12,0.05,0.00,-29.97,-60.61,518.43,950.00,1008.00,1161.00
11:47:25 07/04/2014,0.68,0.60,-0.25,-0.33,-0.22,-0.00,-0.06,-33.81,-59.08,519.53,950.00,1008.00,1161.00
11:47:25 07/04/2014,0.69,0.59,-0.27,-0.32,-0.21,-0.01,0.22,-34.48,-55.24,520.57,950.00,1008.00,1161.00
11:47:25 07/04/2014,0.70,0.58,-0.28,-0.31,-0.21,-0.02,0.10,-32.17,-58.17,521.61,950.00,1008.00,1161.00
11:47:25 07/04/2014,0.70,0.57,-0.30,-0.29,-0.30,-0.03,0.01,-31.07,-61.83,522.34,950.00,1008.00,1161.00
11:47:25 07/04/2014,0.71,0.57,-0.31,-0.28,-0.37,-0.05,-0.02,-33.45,-61.16,523.32,950.00,1008.00,1161.00
11:47:25 07/04/2014,0.72,0.56,-0.33,-0.26,-0.37,-0.02,-0.04,-32.17,-55.97,524.84,950.00,1008.00,1161.00
11:47:25 07/04/2014,0.72,0.55,-0.34,-0.25,-0.39,-0.15,0.10,-35.83,-55.97,525.76,950.00,1008.00,1161.00
11:47:25 07/04/2014,0.73,0.54,-0.35,-0.23,-0.46,-0.06,-0.00,-29.05,-59.14,526.79,950.00,1008.00,1161.00
11:47:25 07/04/2014,0.73,0.53,-0.37,-0.22,-0.53,-0.11,0.04,-33.51,-59.88,528.99,950.00,1008.00,1161.00
11:47:25 07/04/2014,0.74,0.52,-0.38,-0.20,-0.54,-0.17,0.15,-35.46,-56.15,531.74,950.00,1008.00,1161.00
11:47:25 07/04/2014,0.74,0.51,-0.40,-0.19,-0.54,-0.21,0.11,-34.00,-58.41,532.59,950.00,1008.00,1161.00
11:47:26 07/04/2014,0.75,0.50,-0.41,-0.17,-0.57,-0.17,-0.01,-31.19,-60.67,535.10,950.00,1008.00,1161.00
11:47:26 07/04/2014,0.75,0.48,-0.42,-0.16,-0.60,-0.22,0.00,-32.35,-60.00,538.33,950.00,1008.00,1161.00
11:47:26 07/04/2014,0.75,0.47,-0.44,-0.14,-0.60,-0.31,0.00,-33.02,-60.00,541.08,950.00,1008.00,1161.00
11:47:26 07/04/2014,0.76,0.46,-0.45,-0.12,-0.66,-0.29,-0.03,-30.15,-62.26,544.74,950.00,1008.00,1161.00
11:47:26 07/04/2014,0.76,0.45,-0.46,-0.11,-0.71,-0.34,-0.04,-34.30,-60.97,549.62,950.00,1008.00,1161.00
11:47:26 07/04/2014,0.76,0.44,-0.47,-0.09,-0.71,-0.48,0.06,-36.87,-59.88,553.10,950.00,1008.00,1161.00
11:47:26 07/04/2014,0.76,0.42,-0.49,-0.07,-0.79,-0.57,0.03,-34.73,-60.00,553.47,-245.00,1575.00,1237.00
11:47:26 07/04/2014,0.76,0.41,-0.50,-0.06,-0.83,-0.65,0.05,-35.83,-59.45,549.38,-245.00,1575.00,1237.00
11:47:26 07/04/2014,0.76,0.40,-0.51,-0.04,-0.83,-0.63,0.08,-33.75,-60.79,543.64,-245.00,1575.00,1237.00
11:47:26 07/04/2014,0.76,0.38,-0.52,-0.02,-0.84,-0.63,-0.05,-32.96,-60.42,540.53,-245.00,1575.00,1237.00
11:47:26 07/04/2014,0.76,0.37,-0.53,-0.01,-0.84,-0.67,0.02,-34.00,-59.75,539.55,-245.00,1575.00,1237.00
11:47:26 07/04/2014,0.76,0.35,-0.54,0.01,-0.86,-0.69,-0.00,-31.92,-61.16,539.55,-245.00,1575.00,1237.00
11:47:26 07/04/2014,0.76,0.34,-0.55,0.02,-0.88,-0.73,-0.06,-32.90,-61.65,540.71,-245.00,1575.00,1237.00
11:47:26 07/04/2014,0.76,0.33,-0.56,0.04,-0.88,-0.77,-0.15,-33.57,-61.71,542.54,-245.00,1575.00,1237.00
11:47:26 07/04/2014,0.76,0.31,-0.57,0.06,-0.91,-0.82,-0.12,-34.55,-62.93,544.80,-245.00,1575.00,1237.00
11:47:26 07/04/2014,0.75,0.30,-0.58,0.07,-0.91,-0.93,-0.04,-38.57,-62.44,546.87,-245.00,1575.00,1237.00
11:47:26 07/04/2014,0.75,0.28,-0.59,0.09,-0.93,-0.97,-0.04,-36.80,-63.35,546.26,-245.00,1575.00,1237.00
11:47:26 07/04/2014,0.75,0.27,-0.60,0.11,-0.91,-1.02,-0.01,-37.17,-62.68,545.65,-245.00,1575.00,1237.00
11:47:26 07/04/2014,0.74,0.25,-0.61,0.12,-0.90,-1.07,0.02,-36.38,-62.19,546.02,-245.00,1575.00,1237.00
11:47:26 07/04/2014,0.74,0.24,-0.62,0.14,-0.92,-1.11,-0.04,-35.22,-62.07,546.57,-245.00,1575.00,1237.00
11:47:26 07/04/2014,0.73,0.22,-0.62,0.16,-0.91,-1.15,-0.08,-34.48,-62.81,547.00,-245.00,1575.00,1237.00
11:47:26 07/04/2014,0.73,0.20,-0.63,0.17,-0.91,-1.22,-0.23,-35.28,-62.68,547.85,-245.00,1575.00,1237.00
11:47:26 07/04/2014,0.72,0.19,-0.64,0.19,-0.91,-1.22,-0.10,-35.64,-62.87,548.46,-245.00,1575.00,1237.00
11:47:26 07/04/2014,0.72,0.17,-0.65,0.20,-0.90,-1.30,-0.14,-38.70,-61.34,549.50,-245.00,1575.00,1237.00
11:47:26 07/04/2014,0.71,0.15,-0.65,0.22,-0.89,-1.35,-0.19,-39.00,-61.28,550.29,-1507.00,472.00,1222.00
11:47:26 07/04/2014,0.70,0.14,-0.66,0.23,-0.86,-1.39,-0.04,-39.25,-63.29,550.84,-1507.00,472.00,1222.00
11:47:26 07/04/2014,0.69,0.12,-0.66,0.25,-0.87,-1.47,-0.06,-39.37,-63.35,551.88,-1507.00,472.00,1222.00
11:47:26 07/04/2014,0.69,0.10,-0.67,0.27,-0.86,-1.50,-0.11,-37.54,-63.11,552.86,-1507.00,472.00,1222.00
11:47:26 07/04/2014,0.68,0.09,-0.67,0.28,-0.81,-1.53,-0.12,-36.68,-62.68,553.77,-1507.00,472.00,1222.00
11:47:26 07/04/2014,0.67,0.07,-0.68,0.30,-0.76,-1.56,-0.17,-36.62,-63.23,554.63,-1507.00,472.00,1222.00
11:47:26 07/04/2014,0.66,0.05,-0.68,0.31,-0.80,-1.62,-0.25,-37.84,-64.09,555.36,-1507.00,472.00,1222.00
11:47:26 07/04/2014,0.65,0.04,-0.69,0.33,-0.75,-1.66,-0.20,-38.45,-63.54,555.79,-1507.00,472.00,1222.00
11:47:26 07/04/2014,0.64,0.02,-0.69,0.34,-0.72,-1.71,-0.10,-39.12,-62.26,556.52,-1507.00,472.00,1222.00
11:47:26 07/04/2014,0.63,0.00,-0.69,0.35,-0.71,-1.75,-0.10,-39.12,-61.10,557.25,-1507.00,472.00,1222.00
11:47:26 07/04/2014,0.62,-0.01,-0.69,0.37,-0.65,-1.79,-0.10,-38.27,-60.36,557.80,-1507.00,472.00,1222.00
11:47:26 07/04/2014,0.61,-0.03,-0.69,0.38,-0.66,-1.81,-0.13,-37.48,-60.12,558.41,-1507.00,472.00,1222.00
11:47:26 07/04/2014,0.60,-0.05,-0.70,0.40,-0.61,-1.85,-0.32,-38.33,-62.32,558.78,-1507.00,472.00,1222.00
11:47:26 07/04/2014,0.58,-0.07,-0.70,0.41,-0.56,-1.87,-0.27,-37.05,-62.99,558.72,-1507.00,472.00,1222.00
11:47:26 07/04/2014,0.57,-0.08,-0.70,0.42,-0.52,-1.90,-0.27,-38.88,-64.27,558.96,-1507.00,472.00,1222.00
11:47:26 07/04/2014,0.56,-0.10,-0.70,0.44,-0.50,-1.96,-0.23,-38.51,-63.54,559.33,-1507.00,472.00,1222.00
11:47:26 07/04/2014,0.55,-0.12,-0.70,0.45,-0.45,-1.99,-0.19,-37.84,-62.07,559.69,-1507.00,472.00,1222.00
11:47:26 07/04/2014,0.53,-0.13,-0.70,0.46,-0.44,-2.00,-0.19,-38.27,-62.01,560.12,-1556.00,-1417.00,1146.00
11:47:26 07/04/2014,0.52,-0.15,-0.70,0.47,-0.32,-1.99,-0.20,-37.23,-60.24,560.42,-1556.00,-1417.00,1146.00
11:47:26 07/04/2014,0.51,-0.17,-0.69,0.49,-0.34,-2.02,-0.34,-39.25,-61.46,560.91,-1556.00,-1417.00,1146.00
11:47:26 07/04/2014,0.49,-0.18,-0.69,0.50,-0.28,-2.03,-0.26,-37.78,-61.83,561.10,-1556.00,-1417.00,1146.00
11:47:26 07/04/2014,0.48,-0.20,-0.69,0.51,-0.22,-2.06,-0.23,-37.29,-60.06,561.40,-1556.00,-1417.00,1146.00
11:47:26 07/04/2014,0.46,-0.22,-0.69,0.52,-0.17,-2.06,-0.30,-38.27,-60.24,561.95,-1556.00,-1417.00,1146.00
11:47:26 07/04/2014,0.45,-0.23,-0.68,0.53,-0.13,-2.08,-0.26,-37.29,-59.45,562.19,-1556.00,-1417.00,1146.00
11:47:26 07/04/2014,0.43,-0.25,-0.68,0.54,-0.08,-2.10,-0.21,-36.74,-58.47,562.50,-1556.00,-1417.00,1146.00
11:47:26 07/04/2014,0.42,-0.26,-0.67,0.55,-0.02,-2.10,-0.26,-37.90,-60.85,562.74,-1556.00,-1417.00,1146.00
11:47:26 07/04/2014,0.40,-0.28,-0.67,0.56,0.01,-2.08,-0.21,-36.93,-62.07,562.74,-1556.00,-1417.00,1146.00
11:47:26 07/04/2014,0.38,-0.30,-0.66,0.57,0.07,-2.10,-0.20,-36.13,-62.74,562.87,-1556.00,-1417.00,1146.00
11:47:26 07/04/2014,0.37,-0.31,-0.66,0.58,0.09,-2.08,-0.24,-35.64,-63.29,563.17,-1556.00,-1417.00,1146.00
11:47:26 07/04/2014,0.35,-0.33,-0.65,0.59,0.16,-2.05,-0.27,-35.46,-62.62,563.54,-1556.00,-1417.00,1146.00
11:47:26 07/04/2014,0.33,-0.34,-0.65,0.60,0.15,-2.07,-0.32,-35.83,-61.46,564.09,-1556.00,-1417.00,1146.00
11:47:26 07/04/2014,0.32,-0.36,-0.64,0.60,0.25,-2.06,-0.21,-35.95,-60.55,564.27,-1556.00,-1417.00,1146.00
11:47:26 07/04/2014,0.30,-0.37,-0.63,0.61,0.30,-2.04,-0.25,-36.25,-59.88,564.76,-1556.00,-1417.00,1146.00
11:47:26 07/04/2014,0.28,-0.38,-0.62,0.62,0.35,-2.03,-0.23,-36.07,-59.94,564.82,-1556.00,-1417.00,1146.00
11:47:26 07/04/2014,0.26,-0.40,-0.62,0.63,0.41,-2.02,-0.21,-36.25,-61.52,564.64,278.00,-2709.00,978.00
11:47:26 07/04/2014,0.25,-0.41,-0.61,0.63,0.42,-2.01,-0.22,-36.13,-61.83,564.64,278.00,-2709.00,978.00
11:47:26 07/04/2014,0.23,-0.43,-0.60,0.64,0.47,-1.98,-0.29,-36.38,-63.29,564.51,278.00,-2709.00,978.00
11:47:26 07/04/2014,0.21,-0.44,-0.59,0.64,0.53,-1.94,-0.26,-35.83,-63.17,564.51,278.00,-2709.00,978.00
11:47:26 07/04/2014,0.19,-0.45,-0.58,0.65,0.54,-1.92,-0.33,-36.25,-63.17,564.76,278.00,-2709.00,978.00
11:47:26 07/04/2014,0.17,-0.47,-0.57,0.65,0.62,-1.89,-0.29,-36.38,-62.74,564.64,278.00,-2709.00,978.00
11:47:26 07/04/2014,0.15,-0.48,-0.56,0.66,0.61,-1.89,-0.21,-36.32,-61.40,564.88,278.00,-2709.00,978.00
11:47:26 07/04/2014,0.14,-0.49,-0.55,0.66,0.69,-1.85,-0.25,-36.62,-61.71,564.82,278.00,-2709.00,978.00
11:47:26 07/04/2014,0.12,-0.50,-0.54,0.67,0.74,-1.79,-0.22,-35.83,-61.04,564.82,278.00,-2709.00,978.00
11:47:26 07/04/2014,0.10,-0.51,-0.53,0.67,0.75,-1.76,-0.26,-35.52,-62.13,564.70,278.00,-2709.00,978.00
11:47:26 07/04/2014,0.08,-0.52,-0.52,0.67,0.80,-1.73,-0.25,-35.40,-62.74,564.51,278.00,-2709.00,978.00
11:47:26 07/04/2014,0.06,-0.54,-0.51,0.67,0.80,-1.69,-0.37,-35.89,-62.99,564.51,278.00,-2709.00,978.00
11:47:26 07/04/2014,0.04,-0.55,-0.49,0.68,0.83,-1.64,-0.34,-35.89,-62.93,564.33,278.00,-2709.00,978.00
11:47:26 07/04/2014,0.02,-0.56,-0.48,0.68,0.85,-1.59,-0.22,-36.44,-62.32,564.33,278.00,-2709.00,978.00
11:47:26 07/04/2014,0.01,-0.57,-0.47,0.68,0.90,-1.56,-0.22,-37.05,-61.40,564.58,278.00,-2709.00,978.00
11:47:26 07/04/2014,-0.01,-0.58,-0.46,0.68,0.90,-1.52,-0.25,-36.99,-61.04,564.70,278.00,-2709.00,978.00
11:47:26 07/04/2014,-0.03,-0.58,-0.44,0.68,0.92,-1.47,-0.25,-36.74,-62.50,564.45,278.00,-2709.00,978.00
11:47:26 07/04/2014,-0.05,-0.59,-0.43,0.68,0.96,-1.44,-0.17,-36.32,-63.35,564.27,1687.00,-1780.00,748.00
11:47:26 07/04/2014,-0.07,-0.60,-0.42,0.68,0.97,-1.39,-0.19,-36.07,-64.03,564.15,1687.00,-1780.00,748.00
11:47:26 07/04/2014,-0.09,-0.61,-0.40,0.68,0.97,-1.35,-0.22,-35.40,-64.33,564.15,1687.00,-1780.00,748.00
11:47:26 07/04/2014,-0.11,-0.62,-0.39,0.68,0.98,-1.31,-0.24,-34.79,-63.54,564.21,1687.00,-1780.00,748.00
11:47:26 07/04/2014,-0.12,-0.62,-0.37,0.67,0.96,-1.24,-0.30,-35.03,-62.87,564.39,1687.00,-1780.00,748.00
11:47:26 07/04/2014,-0.14,-0.63,-0.36,0.67,0.97,-1.18,-0.22,-35.83,-61.77,564.33,1687.00,-1780.00,748.00
11:47:26 07/04/2014,-0.16,-0.64,-0.34,0.67,0.99,-1.16,-0.31,-37.48,-62.74,564.15,1687.00,-1780.00,748.00
11:47:26 07/04/2014,-0.18,-0.64,-0.33,0.67,0.98,-1.11,-0.12,-37.11,-62.93,563.96,1687.00,-1780.00,748.00
11:47:26 07/04/2014,-0.20,-0.65,-0.31,0.66,1.03,-1.03,-0.14,-38.76,-62.74,563.72,1687.00,-1780.00,748.00
11:47:26 07/04/2014,-0.22,-0.66,-0.30,0.66,1.02,-0.97,-0.17,-37.48,-64.33,563.54,1687.00,-1780.00,748.00
11:47:26 07/04/2014,-0.23,-0.66,-0.28,0.66,0.99,-0.94,-0.16,-37.84,-64.39,563.42,1687.00,-1780.00,748.00
11:47:26 07/04/2014,-0.25,-0.66,-0.27,0.65,0.98,-0.93,-0.21,-39.31,-63.48,563.23,1687.00,-1780.00,748.00
11:47:26 07/04/2014,-0.27,-0.67,-0.25,0.65,0.98,-0.87,-0.17,-38.51,-62.68,562.99,1687.00,-1780.00,748.00
11:47:26 07/04/2014,-0.29,-0.67,-0.24,0.64,0.95,-0.80,-0.12,-38.45,-62.01,562.81,1687.00,-1780.00,748.00
11:47:26 07/04/2014,-0.30,-0.68,-0.22,0.63,0.95,-0.76,-0.13,-38.94,-62.19,562.50,1687.00,-1780.00,748.00
11:47:26 07/04/2014,-0.32,-0.68,-0.20,0.63,0.94,-0.70,-0.10,-38.64,-62.87,562.32,1687.00,-1780.00,748.00
11:47:26 07/04/2014,-0.34,-0.68,-0.19,0.62,0.90,-0.67,-0.12,-38.51,-63.54,561.95,1687.00,-1780.00,748.00
11:47:26 07/04/2014,-0.35,-0.68,-0.17,0.62,0.85,-0.61,-0.11,-38.45,-64.51,561.22,1327.00,630.00,917.00
11:47:26 07/04/2014,-0.37,-0.68,-0.15,0.61,0.87,-0.59,-0.12,-39.31,-64.88,560.55,1327.00,630.00,917.00
11:47:26 07/04/2014,-0.39,-0.69,-0.14,0.60,0.82,-0.55,-0.14,-39.18,-64.33,560.18,1327.00,630.00,917.00
11:47:26 07/04/2014,-0.40,-0.69,-0.12,0.59,0.81,-0.51,-0.06,-39.67,-63.78,560.06,1327.00,630.00,917.00
11:47:26 07/04/2014,-0.42,-0.69,-0.10,0.58,0.78,-0.50,-0.08,-39.79,-63.17,560.30,1327.00,630.00,917.00
11:47:26 07/04/2014,-0.43,-0.69,-0.09,0.58,0.74,-0.44,-0.06,-39.73,-62.13,560.12,1327.00,630.00,917.00
11:47:26 07/04/2014,-0.45,-0.69,-0.07,0.57,0.69,-0.40,0.00,-38.39,-61.77,559.69,1327.00,630.00,917.00
11:47:26 07/04/2014,-0.46,-0.69,-0.05,0.56,0.66,-0.39,-0.04,-38.76,-61.58,559.02,1327.00,630.00,917.00
11:47:26 07/04/2014,-0.48,-0.68,-0.04,0.55,0.59,-0.33,-0.11,-36.80,-62.07,558.23,1327.00,630.00,917.00
11:47:26 07/04/2014,-0.49,-0.68,-0.02,0.54,0.59,-0.29,-0.01,-36.25,-62.87,557.19,1327.00,630.00,917.00
11:47:26 07/04/2014,-0.51,-0.68,-0.00,0.53,0.60,-0.28,-0.08,-38.21,-62.07,557.01,1327.00,630.00,917.00
11:47:26 07/04/2014,-0.52,-0.68,0.02,0.52,0.49,-0.23,-0.03,-36.62,-62.44,557.19,1327.00,630.00,917.00
11:47:26 07/04/2014,-0.53,-0.68,0.03,0.51,0.47,-0.22,-0.07,-37.66,-62.26,557.37,1327.00,630.00,917.00
11:47:26 07/04/2014,-0.55,-0.67,0.05,0.49,0.38,-0.19,-0.08,-38.88,-61.46,557.56,1327.00,630.00,917.00
11:47:26 07/04/2014,-0.56,-0.67,0.07,0.48,0.35,-0.18,0.02,-39.06,-61.52,557.68,1327.00,630.00,917.00
11:47:26 07/04/2014,-0.74,-0.26,0.60,-0.11,-0.77,-1.72,-0.09,-41.14,-67.26,592.53,524.00,1433.00,1268.00
11:47:26 07/04/2014,-0.74,-0.24,0.61,-0.13,-0.76,-1.75,-0.15,-41.44,-67.44,593.69,524.00,1433.00,1268.00
11:47:26 07/04/2014,-0.74,-0.23,0.62,-0.15,-0.70,-1.82,-0.07,-40.89,-66.89,594.73,524.00,1433.00,1268.00
11:47:26 07/04/2014,-0.73,-0.21,0.63,-0.17,-0.71,-1.86,-0.22,-41.99,-67.32,596.01,524.00,1433.00,1268.00
11:47:26 07/04/2014,-0.72,-0.19,0.64,-0.18,-0.71,-1.95,-0.26,-42.72,-69.89,596.80,524.00,1433.00,1268.00
11:47:26 07/04/2014,-0.72,-0.17,0.65,-0.20,-0.67,-1.96,-0.18,-41.08,-69.58,597.35,524.00,1433.00,1268.00
11:47:26 07/04/2014,-0.71,-0.15,0.65,-0.22,-0.59,-1.96,-0.15,-41.56,-68.66,598.39,524.00,1433.00,1268.00
11:47:26 07/04/2014,-0.70,-0.14,0.66,-0.23,-0.56,-2.02,-0.13,-42.60,-68.48,599.61,524.00,1433.00,1268.00
11:47:26 07/04/2014,-0.69,-0.12,0.66,-0.25,-0.52,-2.08,-0.18,-42.72,-67.20,600.71,524.00,1433.00,1268.00
11:47:26 07/04/2014,-0.68,-0.10,0.67,-0.27,-0.47,-2.10,-0.21,-43.40,-68.60,601.56,524.00,1433.00,1268.00
11:47:26 07/04/2014,-0.68,-0.08,0.67,-0.29,-0.42,-2.10,-0.26,-43.33,-68.18,602.48,524.00,1433.00,1268.00
11:47:26 07/04/2014,-0.67,-0.06,0.68,-0.30,-0.39,-2.17,-0.26,-44.92,-69.09,603.33,524.00,1433.00,1268.00
11:47:26 07/04/2014,-0.66,-0.04,0.68,-0.32,-0.37,-2.19,-0.19,-43.27,-67.26,604.19,524.00,1433.00,1268.00
11:47:26 07/04/2014,-0.64,-0.03,0.69,-0.33,-0.30,-2.21,-0.17,-43.58,-66.83,605.04,524.00,1433.00,1268.00
11:47:26 07/04/2014,-0.63,-0.01,0.69,-0.35,-0.26,-2.25,-0.25,-45.35,-67.93,606.02,524.00,1433.00,1268.00
11:47:26 07/04/2014,-0.62,0.01,0.69,-0.37,-0.20,-2.23,-0.24,-43.64,-66.47,606.69,524.00,1433.00,1268.00
11:47:26 07/04/2014,-0.61,0.03,0.69,-0.38,-0.15,-2.24,-0.22,-44.80,-67.38,607.60,524.00,1433.00,1268.00
11:47:26 07/04/2014,-0.60,0.05,0.70,-0.40,-0.12,-2.26,-0.27,-45.78,-68.05,608.46,524.00,1433.00,1268.00
11:47:26 07/04/2014,-0.58,0.07,0.70,-0.41,-0.07,-2.29,-0.28,-45.90,-67.87,609.19,524.00,1433.00,1268.00
11:47:26 07/04/2014,-0.57,0.09,0.70,-0.42,-0.03,-2.27,-0.25,-45.47,-67.44,609.80,-1196.00,1228.00,1344.00
11:47:26 07/04/2014,-0.56,0.11,0.70,-0.44,0.01,-2.31,-0.22,-46.51,-67.57,610.60,-1196.00,1228.00,1344.00
11:47:26 07/04/2014,-0.54,0.12,0.70,-0.45,0.10,-2.29,-0.24,-45.90,-66.77,611.27,-1196.00,1228.00,1344.00
11:47:26 07/04/2014,-0.53,0.14,0.70,-0.47,0.15,-2.30,-0.28,-45.96,-66.65,611.82,-1196.00,1228.00,1344.00
11:47:26 07/04/2014,-0.51,0.16,0.69,-0.48,0.21,-2.26,-0.21,-45.47,-65.61,612.49,-1196.00,1228.00,1344.00
11:47:26 07/04/2014,-0.50,0.18,0.69,-0.49,0.25,-2.28,-0.32,-46.75,-66.10,613.10,-1196.00,1228.00,1344.00
11:47:26 07/04/2014,-0.48,0.20,0.69,-0.50,0.32,-2.26,-0.25,-46.45,-66.04,613.46,-1196.00,1228.00,1344.00
11:47:26 07/04/2014,-0.46,0.22,0.69,-0.52,0.34,-2.24,-0.25,-46.20,-66.59,613.89,-1196.00,1228.00,1344.00
11:47:26 07/04/2014,-0.45,0.23,0.68,-0.53,0.41,-2.20,-0.33,-45.84,-67.50,614.26,-1196.00,1228.00,1344.00
11:47:26 07/04/2014,-0.43,0.25,0.68,-0.54,0.45,-2.22,-0.23,-44.13,-67.75,614.56,-1196.00,1228.00,1344.00
11:47:26 07/04/2014,-0.41,0.27,0.67,-0.55,0.47,-2.20,-0.31,-44.07,-67.57,615.11,-1196.00,1228.00,1344.00
11:47:26 07/04/2014,-0.40,0.29,0.67,-0.56,0.54,-2.18,-0.33,-43.58,-66.47,615.60,-1196.00,1228.00,1344.00
11:47:26 07/04/2014,-0.38,0.30,0.66,-0.57,0.58,-2.12,-0.27,-42.72,-64.45,616.33,-1196.00,1228.00,1344.00
11:47:26 07/04/2014,-0.36,0.32,0.66,-0.58,0.63,-2.10,-0.37,-43.82,-63.96,616.82,-1196.00,1228.00,1344.00
11:47:26 07/04/2014,-0.34,0.34,0.65,-0.59,0.68,-2.07,-0.32,-43.27,-63.05,617.31,-1196.00,1228.00,1344.00
11:47:26 07/04/2014,-0.32,0.35,0.64,-0.60,0.72,-2.02,-0.32,-43.70,-63.72,617.55,-1196.00,1228.00,1344.00
11:47:26 07/04/2014,-0.30,0.37,0.63,-0.61,0.76,-2.02,-0.36,-44.68,-64.70,617.74,-1196.00,1228.00,1344.00
11:47:26 07/04/2014,-0.29,0.39,0.63,-0.61,0.79,-1.99,-0.25,-43.52,-65.43,617.92,-1196.00,1228.00,1344.00
11:47:26 07/04/2014,-0.27,0.40,0.62,-0.62,0.80,-1.94,-0.31,-44.31,-65.00,618.41,-1196.00,1228.00,1344.00
11:47:26 07/04/2014,-0.25,0.42,0.61,-0.63,0.84,-1.88,-0.35,-44.19,-64.33,618.77,212.00,-2646.00,901.00
11:47:26 07/04/2014,-0.23,0.43,0.60,-0.63,0.88,-1.82,-0.24,-42.60,-63.84,619.14,212.00,-2646.00,901.00
11:47:26 07/04/2014,-0.21,0.45,0.59,-0.64,0.91,-1.79,-0.31,-42.97,-63.66,619.45,212.00,-2646.00,901.00
11:47:26 07/04/2014,-0.19,0.46,0.58,-0.65,0.92,-1.72,-0.34,-42.54,-63.48,619.75,212.00,-2646.00,901.00
11:47:26 07/04/2014,-0.17,0.48,0.57,-0.65,0.95,-1.68,-0.30,-41.69,-66.22,619.63,212.00,-2646.00,901.00
11:47:26 07/04/2014,-0.15,0.49,0.56,-0.66,0.99,-1.69,-0.24,-41.26,-66.71,619.69,212.00,-2646.00,901.00
11:47:26 07/04/2014,-0.13,0.50,0.54,-0.66,1.00,-1.59,-0.27,-40.71,-66.59,619.93,212.00,-2646.00,901.00
11:47:26 07/04/2014,-0.11,0.52,0.53,-0.66,0.96,-1.52,-0.34,-40.41,-66.83,620.12,212.00,-2646.00,901.00
11:47:26 07/04/2014,-0.09,0.53,0.52,-0.67,1.01,-1.51,-0.41,-40.47,-66.77,620.18,212.00,-2646.00,901.00
11:47:26 07/04/2014,-0.07,0.54,0.51,-0.67,1.00,-1.44,-0.30,-39.00,-65.92,620.36,212.00,-2646.00,901.00
11:47:26 07/04/2014,-0.05,0.55,0.49,-0.67,0.99,-1.39,-0.30,-39.67,-65.61,620.42,212.00,-2646.00,901.00
11:47:26 07/04/2014,-0.02,0.56,0.48,-0.67,1.01,-1.33,-0.26,-39.55,-65.06,620.48,212.00,-2646.00,901.00
11:47:26 07/04/2014,-0.00,0.57,0.46,-0.67,1.02,-1.27,-0.23,-39.31,-64.64,620.61,212.00,-2646.00,901.00
11:47:26 07/04/2014,0.02,0.58,0.45,-0.68,1.01,-1.20,-0.41,-41.02,-66.22,620.42,212.00,-2646.00,901.00
11:47:26 07/04/2014,0.04,0.59,0.44,-0.68,0.99,-1.15,-0.33,-41.38,-68.42,620.06,212.00,-2646.00,901.00
11:47:26 07/04/2014,0.06,0.60,0.42,-0.68,0.96,-1.13,-0.27,-41.63,-69.27,620.00,212.00,-2646.00,901.00
11:47:26 07/04/2014,0.08,0.61,0.40,-0.67,0.96,-1.11,-0.27,-41.50,-69.15,620.06,212.00,-2646.00,901.00
11:47:26 07/04/2014,0.10,0.62,0.39,-0.67,0.94,-1.03,-0.24,-42.24,-67.02,620.24,212.00,-2646.00,901.00
11:47:27 07/04/2014,0.12,0.63,0.37,-0.67,0.92,-0.98,-0.30,-42.05,-67.38,620.24,212.00,-2646.00,901.00
11:47:27 07/04/2014,0.14,0.64,0.36,-0.67,0.92,-0.90,-0.27,-41.63,-67.20,620.18,1835.00,-1685.00,672.00
11:47:27 07/04/2014,0.16,0.64,0.34,-0.67,0.89,-0.89,-0.20,-43.15,-66.71,620.18,1835.00,-1685.00,672.00
11:47:27 07/04/2014,0.18,0.65,0.32,-0.66,0.86,-0.82,-0.15,-43.09,-69.15,619.57,1835.00,-1685.00,672.00
11:47:27 07/04/2014,0.20,0.66,0.31,-0.66,0.85,-0.77,-0.22,-42.79,-70.92,619.45,1835.00,-1685.00,672.00
11:47:27 07/04/2014,0.22,0.66,0.29,-0.66,0.79,-0.73,-0.21,-42.60,-70.98,619.51,1835.00,-1685.00,672.00
11:47:27 07/04/2014,0.24,0.67,0.27,-0.65,0.75,-0.71,-0.16,-43.70,-69.27,619.63,1835.00,-1685.00,672.00
11:47:27 07/04/2014,0.26,0.67,0.26,-0.65,0.73,-0.66,-0.18,-42.54,-69.64,619.51,1835.00,-1685.00,672.00
11:47:27 07/04/2014,0.28,0.68,0.24,-0.64,0.67,-0.62,-0.20,-42.48,-68.97,619.57,1835.00,-1685.00,672.00
11:47:27 07/04/2014,0.30,0.68,0.22,-0.63,0.64,-0.59,-0.09,-43.40,-67.26,619.32,1835.00,-1685.00,672.00
11:47:27 07/04/2014,0.32,0.68,0.20,-0.63,0.61,-0.55,-0.15,-42.97,-66.22,618.90,1835.00,-1685.00,672.00
11:47:27 07/04/2014,0.33,0.69,0.18,-0.62,0.56,-0.50,-0.16,-43.15,-67.87,618.84,1835.00,-1685.00,672.00
11:47:27 07/04/2014,0.35,0.69,0.17,-0.61,0.54,-0.49,-0.16,-44.31,-68.66,619.02,1835.00,-1685.00,672.00
11:47:27 07/04/2014,0.37,0.69,0.15,-0.60,0.48,-0.48,-0.08,-45.23,-68.60,619.51,1835.00,-1685.00,672.00
11:47:27 07/04/2014,0.39,0.69,0.13,-0.60,0.43,-0.49,0.04,-45.78,-69.15,619.93,1835.00,-1685.00,672.00
11:47:27 07/04/2014,0.41,0.69,0.11,-0.59,0.35,-0.44,-0.19,-42.24,-71.29,620.00,1835.00,-1685.00,672.00
11:47:27 07/04/2014,0.42,0.69,0.09,-0.58,0.33,-0.42,-0.13,-43.27,-71.96,619.32,1835.00,-1685.00,672.00
11:47:27 07/04/2014,0.44,0.69,0.07,-0.57,0.29,-0.37,-0.01,-44.43,-66.35,619.81,1835.00,-1685.00,672.00
11:47:27 07/04/2014,0.46,0.69,0.05,-0.56,0.25,-0.39,-0.08,-43.52,-68.42,620.48,1835.00,-1685.00,672.00
11:47:27 07/04/2014,0.47,0.69,0.03,-0.55,0.20,-0.36,-0.17,-42.18,-70.13,620.97,1835.00,-1685.00,672.00
11:47:27 07/04/2014,0.49,0.69,0.02,-0.54,0.10,-0.34,-0.10,-44.43,-68.42,621.52,1310.00,677.00,825.00
11:47:27 07/04/2014,0.50,0.69,-0.00,-0.53,0.07,-0.41,0.02,-47.36,-67.69,622.07,1310.00,677.00,825.00
11:47:27 07/04/2014,0.52,0.68,-0.02,-0.51,0.02,-0.40,-0.12,-46.08,-68.91,622.31,1310.00,677.00,825.00
11:47:27 07/04/2014,0.54,0.68,-0.04,-0.50,-0.02,-0.37,0.07,-45.78,-67.75,622.74,1310.00,677.00,825.00
11:47:27 07/04/2014,0.55,0.67,-0.06,-0.49,-0.08,-0.42,0.06,-46.08,-66.96,623.84,1310.00,677.00,825.00
11:47:27 07/04/2014,0.56,0.67,-0.08,-0.48,-0.11,-0.38,-0.07,-42.42,-68.36,624.08,1310.00,677.00,825.00
11:47:27 07/04/2014,0.58,0.67,-0.10,-0.46,-0.19,-0.42,-0.07,-40.41,-68.30,625.79,1310.00,677.00,825.00
11:47:27 07/04/2014,0.59,0.66,-0.12,-0.45,-0.26,-0.45,-0.09,-44.37,-66.35,626.16,1310.00,677.00,825.00
11:47:27 07/04/2014,0.60,0.65,-0.14,-0.43,-0.28,-0.44,0.02,-44.25,-67.75,626.22,1310.00,677.00,825.00
11:47:27 07/04/2014,0.62,0.65,-0.16,-0.42,-0.35,-0.48,-0.01,-45.78,-67.50,626.65,1310.00,677.00,825.00
11:47:27 07/04/2014,0.63,0.64,-0.17,-0.40,-0.36,-0.49,0.03,-45.29,-67.20,627.26,1310.00,677.00,825.00
11:47:27 07/04/2014,0.64,0.63,-0.19,-0.39,-0.44,-0.53,0.06,-44.07,-66.77,628.05,1310.00,677.00,825.00
11:47:27 07/04/2014,0.65,0.63,-0.21,-0.37,-0.46,-0.54,-0.03,-42.66,-66.96,629.03,1310.00,677.00,825.00
11:47:27 07/04/2014,0.66,0.62,-0.23,-0.36,-0.53,-0.56,-0.08,-42.60,-67.20,630.25,1310.00,677.00,825.00
11:47:27 07/04/2014,0.67,0.61,-0.25,-0.34,-0.56,-0.69,-0.06,-46.57,-66.10,631.23,1310.00,677.00,825.00
11:47:27 07/04/2014,0.68,0.60,-0.27,-0.33,-0.63,-0.66,0.00,-43.70,-67.32,630.86,1310.00,677.00,825.00
11:47:27 07/04/2014,0.69,0.59,-0.28,-0.31,-0.64,-0.69,0.02,-44.80,-66.65,631.04,1310.00,677.00,825.00
11:47:27 07/04/2014,0.70,0.58,-0.30,-0.29,-0.67,-0.76,0.04,-43.70,-66.89,631.29,1310.00,677.00,825.00
11:47:27 07/04/2014,0.71,0.57,-0.32,-0.27,-0.72,-0.80,-0.06,-42.85,-67.14,631.90,1310.00,677.00,825.00
11:47:27 07/04/2014,0.72,0.56,-0.34,-0.26,-0.75,-0.85,0.01,-43.64,-67.50,632.39,163.00,1512.00,1253.00
11:47:27 07/04/2014,0.72,0.54,-0.35,-0.24,-0.77,-0.90,-0.08,-43.03,-69.58,632.93,163.00,1512.00,1253.00
11:47:27 07/04/2014,0.73,0.53,-0.37,-0.22,-0.81,-0.96,-0.06,-42.48,-69.03,633.79,163.00,1512.00,1253.00
11:47:27 07/04/2014,0.73,0.52,-0.39,-0.20,-0.82,-1.01,-0.04,-43.58,-67.81,634.58,163.00,1512.00,1253.00
11:47:27 07/04/2014,0.74,0.51,-0.40,-0.18,-0.85,-1.05,0.00,-44.01,-66.65,635.50,163.00,1512.00,1253.00
11:47:27 07/04/2014,0.74,0.49,-0.42,-0.17,-0.85,-1.11,0.06,-44.37,-66.59,636.23,163.00,1512.00,1253.00
11:47:27 07/04/2014,0.75,0.48,-0.43,-0.15,-0.88,-1.14,0.01,-42.54,-67.20,637.15,163.00,1512.00,1253.00
11:47:27 07/04/2014,0.75,0.47,-0.45,-0.13,-0.91,-1.20,-0.06,-40.95,-68.18,638.00,163.00,1512.00,1253.00
11:47:27 07/04/2014,0.75,0.45,-0.46,-0.11,-0.92,-1.28,-0.10,-40.89,-68.97,638.73,163.00,1512.00,1253.00
11:47:27 07/04/2014,0.76,0.44,-0.48,-0.09,-0.92,-1.32,-0.16,-41.87,-69.21,639.40,163.00,1512.00,1253.00
11:47:27 07/04/2014,0.76,0.42,-0.49,-0.07,-0.91,-1.38,-0.12,-42.66,-68.12,640.20,163.00,1512.00,1253.00
11:47:27 07/04/2014,0.76,0.40,-0.51,-0.05,-0.92,-1.45,-0.10,-44.19,-69.76,640.81,163.00,1512.00,1253.00
11:47:27 07/04/2014,0.76,0.39,-0.52,-0.03,-0.92,-1.49,-0.02,-43.64,-70.01,641.48,163.00,1512.00,1253.00
11:47:27 07/04/2014,0.76,0.37,-0.53,-0.01,-0.91,-1.55,-0.03,-43.27,-70.43,642.40,163.00,1512.00,1253.00
11:47:27 07/04/2014,0.76,0.35,-0.55,0.01,-0.88,-1.62,0.00,-42.66,-69.58,643.55,163.00,1512.00,1253.00
11:47:27 07/04/2014,0.76,0.34,-0.56,0.03,-0.89,-1.67,-0.10,-42.48,-68.36,644.78,163.00,1512.00,1253.00
11:47:27 07/04/2014,0.76,0.32,-0.57,0.05,-0.88,-1.75,-0.12,-43.15,-69.27,645.51,163.00,1512.00,1253.00
11:47:27 07/04/2014,0.75,0.30,-0.58,0.06,-0.89,-1.79,-0.19,-43.46,-70.07,646.24,163.00,1512.00,1253.00
11:47:27 07/04/2014,0.75,0.28,-0.59,0.08,-0.84,-1.84,-0.24,-43.76,-71.11,646.91,163.00,1512.00,1253.00
11:47:27 07/04/2014,0.74,0.27,-0.60,0.10,-0.83,-1.90,-0.15,-43.40,-71.59,647.64,-1622.00,441.00,1253.00
11:47:27 07/04/2014,0.74,0.25,-0.61,0.12,-0.81,-1.98,-0.07,-42.91,-71.84,648.44,-1622.00,441.00,1253.00
11:47:27 07/04/2014,0.73,0.23,-0.62,0.14,-0.76,-2.01,-0.04,-42.79,-71.72,649.54,-1622.00,441.00,1253.00
11:47:27 07/04/2014,0.73,0.21,-0.63,0.16,-0.75,-2.07,-0.19,-44.62,-72.75,650.63,-1622.00,441.00,1253.00
11:47:27 07/04/2014,0.72,0.19,-0.64,0.18,-0.73,-2.10,-0.17,-43.52,-73.12,651.25,-1622.00,441.00,1253.00
11:47:27 07/04/2014,0.71,0.17,-0.65,0.20,-0.69,-2.15,-0.18,-43.82,-73.36,651.92,-1622.00,441.00,1253.00
11:47:27 07/04/2014,0.71,0.15,-0.66,0.22,-0.62,-2.19,-0.21,-44.68,-74.10,652.65,-1622.00,441.00,1253.00
11:47:27 07/04/2014,0.70,0.13,-0.66,0.24,-0.58,-2.24,-0.24,-44.25,-73.12,653.44,-1622.00,441.00,1253.00
11:47:27 07/04/2014,0.69,0.11,-0.67,0.26,-0.53,-2.29,-0.13,-44.01,-72.57,654.11,-1622.00,441.00,1253.00
11:47:27 07/04/2014,0.68,0.09,-0.67,0.27,-0.51,-2.32,-0.15,-45.04,-72.39,655.15,-1622.00,441.00,1253.00
11:47:27 07/04/2014,0.67,0.07,-0.68,0.29,-0.44,-2.35,-0.21,-45.17,-72.08,656.07,-1622.00,441.00,1253.00
11:47:27 07/04/2014,0.66,0.05,-0.68,0.31,-0.40,-2.37,-0.22,-45.17,-72.20,656.86,-1622.00,441.00,1253.00
11:47:27 07/04/2014,0.65,0.03,-0.69,0.33,-0.38,-2.41,-0.33,-46.14,-73.24,657.59,-1622.00,441.00,1253.00
11:47:27 07/04/2014,0.64,0.01,-0.69,0.34,-0.33,-2.45,-0.27,-46.20,-76.05,658.02,-1622.00,441.00,1253.00
11:47:27 07/04/2014,0.62,-0.01,-0.69,0.36,-0.30,-2.49,-0.27,-46.20,-75.20,658.51,-1622.00,441.00,1253.00
11:47:27 07/04/2014,0.61,-0.03,-0.70,0.38,-0.20,-2.45,-0.19,-44.74,-73.18,658.94,-1622.00,441.00,1253.00
11:47:27 07/04/2014,0.60,-0.05,-0.70,0.39,-0.13,-2.46,-0.18,-45.78,-72.45,659.91,-1622.00,441.00,1253.00
11:47:27 07/04/2014,0.58,-0.07,-0.70,0.41,-0.14,-2.50,-0.28,-48.58,-73.36,660.89,-1622.00,441.00,1253.00
11:47:27 07/04/2014,0.57,-0.09,-0.70,0.43,-0.05,-2.52,-0.31,-47.55,-73.18,661.25,-1261.00,-1732.00,932.00
11:47:27 07/04/2014,0.55,-0.11,-0.70,0.44,-0.01,-2.50,-0.31,-45.29,-72.39,661.62,-1261.00,-1732.00,932.00
11:47:27 07/04/2014,0.54,-0.13,-0.70,0.46,0.03,-2.50,-0.29,-45.04,-71.96,661.87,-1261.00,-1732.00,932.00
11:47:27 07/04/2014,0.52,-0.15,-0.70,0.47,0.11,-2.51,-0.27,-44.62,-72.02,662.11,-1261.00,-1732.00,932.00
11:47:27 07/04/2014,0.50,-0.17,-0.69,0.48,0.17,-2.50,-0.24,-44.86,-72.69,662.35,-1261.00,-1732.00,932.00
11:47:27 07/04/2014,0.49,-0.19,-0.69,0.50,0.25,-2.49,-0.28,-44.86,-73.24,662.41,-1261.00,-1732.00,932.00
11:47:27 07/04/2014,0.47,-0.21,-0.69,0.51,0.25,-2.47,-0.30,-45.17,-73.36,662.66,-1261.00,-1732.00,932.00
11:47:27 07/04/2014,0.45,-0.23,-0.68,0.52,0.31,-2.44,-0.38,-47.12,-73.79,662.72,-1261.00,-1732.00,932.00
11:47:27 07/04/2014,0.43,-0.25,-0.68,0.54,0.38,-2.48,-0.45,-50.23,-73.97,662.72,-1261.00,-1732.00,932.00
11:47:27 07/04/2014,0.42,-0.27,-0.67,0.55,0.43,-2.44,-0.29,-46.45,-72.75,662.78,-1261.00,-1732.00,932.00
11:47:27 07/04/2014,0.40,-0.29,-0.67,0.56,0.50,-2.39,-0.24,-46.20,-72.51,662.66,-1261.00,-1732.00,932.00
11:47:27 07/04/2014,0.38,-0.31,-0.66,0.57,0.58,-2.38,-0.24,-45.72,-72.02,662.54,-1261.00,-1732.00,932.00
11:47:27 07/04/2014,0.36,-0.32,-0.66,0.58,0.60,-2.34,-0.19,-43.95,-71.72,662.60,-1261.00,-1732.00,932.00
11:47:27 07/04/2014,0.34,-0.34,-0.65,0.59,0.67,-2.27,-0.29,-44.19,-71.41,662.54,-1261.00,-1732.00,932.00
11:47:27 07/04/2014,0.32,-0.36,-0.64,0.60,0.65,-2.32,-0.41,-44.43,-70.37,662.48,-1261.00,-1732.00,932.00
11:47:27 07/04/2014,0.30,-0.38,-0.63,0.61,0.73,-2.20,-0.31,-40.89,-72.20,662.23,-1261.00,-1732.00,932.00
11:47:27 07/04/2014,0.28,-0.39,-0.62,0.62,0.77,-2.14,-0.46,-42.42,-71.96,662.17,-1261.00,-1732.00,932.00
11:47:27 07/04/2014,0.26,-0.41,-0.61,0.62,0.77,-2.15,-0.41,-45.23,-70.68,661.93,-1261.00,-1732.00,932.00
11:47:27 07/04/2014,0.24,-0.43,-0.60,0.63,0.81,-2.12,-0.29,-43.58,-71.23,661.56,-1261.00,-1732.00,932.00
11:47:27 07/04/2014,0.21,-0.44,-0.59,0.64,0.85,-2.05,-0.28,-44.74,-70.07,661.25,1015.00,-2709.00,1436.00
11:47:27 07/04/2014,0.19,-0.46,-0.58,0.64,0.90,-1.97,-0.31,-44.56,-71.29,660.77,1015.00,-2709.00,1436.00
11:47:27 07/04/2014,0.17,-0.47,-0.57,0.65,0.91,-1.91,-0.23,-42.79,-72.14,660.40,1015.00,-2709.00,1436.00
11:47:27 07/04/2014,0.15,-0.49,-0.56,0.66,0.92,-1.89,-0.33,-43.03,-72.45,660.22,1015.00,-2709.00,1436.00
11:47:27 07/04/2014,0.13,-0.50,-0.55,0.66,0.95,-1.82,-0.32,-41.50,-72.88,659.97,1015.00,-2709.00,1436.00
11:47:27 07/04/2014,0.11,-0.51,-0.53,0.66,0.97,-1.76,-0.37,-41.38,-72.81,659.79,1015.00,-2709.00,1436.00
11:47:27 07/04/2014,0.09,-0.53,-0.52,0.67,0.96,-1.73,-0.44,-42.60,-72.20,659.55,1015.00,-2709.00,1436.00
11:47:27 07/04/2014,0.06,-0.54,-0.51,0.67,1.00,-1.66,-0.19,-40.47,-72.63,659.30,1015.00,-2709.00,1436.00
11:47:27 07/04/2014,0.04,-0.55,-0.49,0.67,1.01,-1.60,-0.23,-41.93,-71.78,659.36,1015.00,-2709.00,1436.00
11:47:27 07/04/2014,0.02,-0.56,-0.48,0.67,1.02,-1.57,-0.36,-43.40,-71.66,659.00,1015.00,-2709.00,1436.00
11:47:27 07/04/2014,-0.00,-0.57,-0.46,0.68,0.99,-1.49,-0.20,-39.92,-72.94,658.75,1015.00,-2709.00,1436.00
11:47:27 07/04/2014,-0.02,-0.59,-0.45,0.68,0.99,-1.43,-0.27,-40.22,-73.18,658.57,1015.00,-2709.00,1436.00
11:47:27 07/04/2014,-0.05,-0.60,-0.43,0.68,1.00,-1.37,-0.26,-40.22,-72.63,658.33,1015.00,-2709.00,1436.00
11:47:27 07/04/2014,-0.07,-0.61,-0.41,0.68,0.96,-1.31,-0.25,-39.98,-73.30,658.14,1015.00,-2709.00,1436.00
11:47:27 07/04/2014,-0.09,-0.62,-0.40,0.68,0.97,-1.27,-0.27,-40.47,-73.00,657.96,1015.00,-2709.00,1436.00
11:47:27 07/04/2014,-0.11,-0.62,-0.38,0.67,0.98,-1.19,-0.19,-41.08,-71.72,657.96,1015.00,-2709.00,1436.00
11:47:27 07/04/2014,-0.13,-0.63,-0.36,0.67,0.94,-1.17,-0.26,-41.87,-71.17,657.96,1015.00,-2709.00,1436.00
11:47:27 07/04/2014,-0.15,-0.64,-0.35,0.67,0.88,-1.09,-0.28,-42.05,-70.31,658.02,1015.00,-2709.00,1436.00
11:47:27 07/04/2014,-0.17,-0.65,-0.33,0.67,0.88,-1.03,-0.24,-42.66,-69.70,658.02,1015.00,-2709.00,1436.00
11:47:27 07/04/2014,-0.20,-0.65,-0.31,0.66,0.90,-1.02,-0.22,-43.76,-69.64,657.96,2310.00,-283.00,779.00
11:47:27 07/04/2014,-0.22,-0.66,-0.29,0.66,0.84,-0.94,-0.13,-44.49,-71.11,657.78,2310.00,-283.00,779.00
11:47:27 07/04/2014,-0.24,-0.67,-0.27,0.65,0.81,-0.94,-0.13,-46.20,-74.04,657.41,2310.00,-283.00,779.00
11:47:27 07/04/2014,-0.26,-0.67,-0.26,0.65,0.77,-0.86,-0.22,-44.86,-76.48,657.35,2310.00,-283.00,779.00
11:47:27 07/04/2014,-0.28,-0.68,-0.24,0.64,0.68,-0.79,-0.14,-44.62,-76.78,657.35,2310.00,-283.00,779.00
11:47:27 07/04/2014,-0.30,-0.68,-0.22,0.63,0.68,-0.82,-0.20,-47.36,-73.91,657.65,2310.00,-283.00,779.00
11:47:27 07/04/2014,-0.32,-0.68,-0.20,0.63,0.64,-0.76,-0.07,-44.56,-73.30,657.71,2310.00,-283.00,779.00
11:47:27 07/04/2014,-0.34,-0.69,-0.18,0.62,0.61,-0.72,-0.13,-43.95,-73.18,658.14,2310.00,-283.00,779.00
11:47:27 07/04/2014,-0.36,-0.69,-0.16,0.61,0.54,-0.69,-0.12,-43.58,-71.53,658.45,2310.00,-283.00,779.00
11:47:27 07/04/2014,-0.38,-0.69,-0.14,0.60,0.49,-0.65,-0.04,-42.97,-70.01,658.57,2310.00,-283.00,779.00
11:47:27 07/04/2014,-0.40,-0.69,-0.12,0.59,0.44,-0.64,-0.17,-41.81,-70.86,658.63,2310.00,-283.00,779.00
11:47:27 07/04/2014,-0.41,-0.69,-0.10,0.58,0.38,-0.60,-0.12,-42.24,-70.37,658.81,2310.00,-283.00,779.00
11:47:27 07/04/2014,-0.43,-0.69,-0.08,0.57,0.34,-0.59,-0.08,-42.91,-70.43,659.00,2310.00,-283.00,779.00
11:47:27 07/04/2014,-0.45,-0.69,-0.06,0.56,0.28,-0.59,-0.08,-43.46,-70.92,659.12,2310.00,-283.00,779.00
11:47:27 07/04/2014,-0.47,-0.69,-0.04,0.55,0.24,-0.57,-0.10,-43.58,-71.17,659.18,2310.00,-283.00,779.00
11:47:27 07/04/2014,-0.48,-0.69,-0.02,0.54,0.19,-0.54,-0.09,-44.07,-72.27,659.30,2310.00,-283.00,779.00
11:47:27 07/04/2014,-0.50,-0.69,-0.00,0.53,0.13,-0.56,-0.12,-46.33,-70.74,659.67,2310.00,-283.00,779.00
11:47:27 07/04/2014,-0.52,-0.68,0.02,0.52,0.05,-0.56,-0.00,-45.90,-71.17,659.61,2310.00,-283.00,779.00
11:47:27 07/04/2014,-0.53,-0.68,0.04,0.50,-0.01,-0.58,-0.12,-46.20,-69.70,659.91,2310.00,-283.00,779.00
11:47:27 07/04/2014,-0.55,-0.68,0.06,0.49,-0.01,-0.55,-0.08,-45.96,-70.43,659.73,868.00,1244.00,1222.00
11:47:27 07/04/2014,-0.56,-0.67,0.08,0.48,-0.12,-0.52,-0.00,-45.65,-69.40,660.03,868.00,1244.00,1222.00
11:47:27 07/04/2014,-0.58,-0.67,0.10,0.46,-0.15,-0.59,-0.02,-47.85,-69.95,660.46,868.00,1244.00,1222.00
11:47:27 07/04/2014,-0.59,-0.66,0.12,0.45,-0.21,-0.58,-0.02,-44.19,-71.78,660.77,868.00,1244.00,1222.00
11:47:27 07/04/2014,-0.61,-0.65,0.14,0.43,-0.27,-0.60,-0.08,-44.56,-70.80,661.38,868.00,1244.00,1222.00
11:47:27 07/04/2014,-0.62,-0.65,0.16,0.42,-0.32,-0.63,0.00,-45.29,-69.58,661.74,868.00,1244.00,1222.00
11:47:27 07/04/2014,-0.63,-0.64,0.18,0.40,-0.35,-0.65,-0.07,-46.39,-69.34,662.11,868.00,1244.00,1222.00
11:47:27 07/04/2014,-0.64,-0.63,0.20,0.38,-0.42,-0.71,-0.09,-45.47,-69.70,662.35,868.00,1244.00,1222.00
11:47:27 07/04/2014,-0.65,-0.62,0.22,0.37,-0.47,-0.73,0.06,-45.84,-70.98,662.54,868.00,1244.00,1222.00
11:47:27 07/04/2014,-0.67,-0.61,0.24,0.35,-0.50,-0.71,-0.08,-44.13,-72.81,662.90,868.00,1244.00,1222.00
11:47:27 07/04/2014,-0.68,-0.60,0.26,0.33,-0.59,-0.77,-0.05,-43.40,-72.81,663.45,868.00,1244.00,1222.00
11:47:27 07/04/2014,-0.69,-0.59,0.28,0.32,-0.62,-0.83,-0.04,-44.80,-72.20,663.82,868.00,1244.00,1222.00
11:47:27 07/04/2014,-0.70,-0.58,0.29,0.30,-0.63,-0.88,-0.05,-45.59,-72.45,664.25,868.00,1244.00,1222.00
11:47:27 07/04/2014,-0.70,-0.57,0.31,0.28,-0.68,-0.91,0.01,-45.90,-71.72,664.92,868.00,1244.00,1222.00
11:47:27 07/04/2014,-0.71,-0.56,0.33,0.26,-0.73,-0.93,-0.07,-44.74,-71.41,665.71,868.00,1244.00,1222.00
11:47:27 07/04/2014,-0.72,-0.55,0.35,0.24,-0.76,-1.00,0.01,-44.13,-70.92,666.32,868.00,1244.00,1222.00
11:47:27 07/04/2014,-0.73,-0.54,0.37,0.23,-0.79,-1.06,-0.11,-44.37,-71.29,667.05,868.00,1244.00,1222.00
11:47:27 07/04/2014,-0.73,-0.52,0.38,0.21,-0.80,-1.08,-0.06,-44.37,-71.72,667.48,-966.00,1197.00,1329.00
11:47:27 07/04/2014,-0.74,-0.51,0.40,0.19,-0.84,-1.18,-0.10,-45.29,-71.41,668.03,-966.00,1197.00,1329.00
11:47:27 07/04/2014,-0.74,-0.49,0.42,0.17,-0.90,-1.20,-0.13,-45.72,-72.08,668.58,-966.00,1197.00,1329.00
11:47:27 07/04/2014,-0.75,-0.48,0.43,0.15,-0.89,-1.28,-0.03,-45.59,-71.72,668.95,-966.00,1197.00,1329.00
11:47:27 07/04/2014,-0.75,-0.47,0.45,0.13,-0.91,-1.33,-0.10,-45.65,-73.12,669.56,-966.00,1197.00,1329.00
11:47:27 07/04/2014,-0.75,-0.45,0.47,0.11,-0.90,-1.36,-0.08,-44.37,-72.57,670.10,-966.00,1197.00,1329.00
11:47:27 07/04/2014,-0.76,-0.43,0.48,0.09,-0.89,-1.42,-0.06,-43.95,-72.57,670.72,-966.00,1197.00,1329.00
11:47:27 07/04/2014,-0.76,-0.42,0.50,0.07,-0.94,-1.52,-0.09,-44.68,-72.75,671.39,-966.00,1197.00,1329.00
11:47:27 07/04/2014,-0.76,-0.40,0.51,0.05,-0.94,-1.53,-0.11,-43.95,-71.35,671.87,-966.00,1197.00,1329.00
11:47:27 07/04/2014,-0.76,-0.38,0.52,0.03,-0.93,-1.62,-0.14,-45.10,-71.47,672.49,-966.00,1197.00,1329.00
11:47:27 07/04/2014,-0.76,-0.37,0.54,0.01,-0.91,-1.66,-0.13,-44.01,-69.95,672.97,-966.00,1197.00,1329.00
11:47:27 07/04/2014,-0.76,-0.35,0.55,-0.01,-0.91,-1.73,-0.15,-45.04,-71.90,673.40,-966.00,1197.00,1329.00
11:47:27 07/04/2014,-0.76,-0.33,0.56,-0.03,-0.90,-1.79,-0.12,-44.43,-72.39,673.64,-966.00,1197.00,1329.00
11:47:27 07/04/2014,-0.75,-0.31,0.58,-0.05,-0.92,-1.85,-0.16,-45.65,-73.43,674.19,-966.00,1197.00,1329.00
11:47:27 07/04/2014,-0.75,-0.29,0.59,-0.07,-0.89,-1.91,-0.12,-46.20,-74.77,674.56,-966.00,1197.00,1329.00
11:47:27 07/04/2014,-0.75,-0.27,0.60,-0.09,-0.86,-1.98,-0.12,-45.23,-73.85,674.93,-966.00,1197.00,1329.00
11:47:27 07/04/2014,-0.74,-0.26,0.61,-0.11,-0.85,-2.02,-0.12,-45.41,-74.40,675.41,-966.00,1197.00,1329.00
11:47:27 07/04/2014,-0.74,-0.24,0.62,-0.13,-0.80,-2.09,-0.14,-44.56,-73.43,675.84,-1867.00,-913.00,1130.00
11:47:27 07/04/2014,-0.73,-0.22,0.63,-0.15,-0.79,-2.15,-0.18,-45.29,-73.85,676.27,-1867.00,-913.00,1130.00
11:47:27 07/04/2014,-0.72,-0.20,0.64,-0.17,-0.77,-2.18,-0.16,-45.10,-74.16,676.64,-1867.00,-913.00,1130.00
11:47:27 07/04/2014,-0.72,-0.18,0.65,-0.19,-0.70,-2.21,-0.14,-44.25,-73.49,677.12,-1867.00,-913.00,1130.00
11:47:27 07/04/2014,-0.71,-0.16,0.65,-0.21,-0.69,-2.31,-0.17,-45.53,-74.77,677.86,-1867.00,-913.00,1130.00
11:47:27 07/04/2014,-0.70,-0.13,0.66,-0.23,-0.62,-2.33,-0.21,-44.13,-73.55,678.28,-1867.00,-913.00,1130.00
11:47:27 07/04/2014,-0.69,-0.11,0.67,-0.25,-0.62,-2.38,-0.27,-45.41,-75.13,678.83,-1867.00,-913.00,1130.00
11:47:27 07/04/2014,-0.68,-0.09,0.67,-0.27,-0.56,-2.37,-0.24,-43.76,-75.56,679.20,-1867.00,-913.00,1130.00
11:47:27 07/04/2014,-0.67,-0.07,0.68,-0.29,-0.48,-2.43,-0.21,-45.53,-76.97,679.63,-1867.00,-913.00,1130.00
11:47:27 07/04/2014,-0.66,-0.05,0.68,-0.31,-0.47,-2.47,-0.22,-44.98,-75.99,680.36,-1867.00,-913.00,1130.00
11:47:27 07/04/2014,-0.65,-0.03,0.69,-0.33,-0.42,-2.51,-0.23,-44.80,-74.77,680.91,-1867.00,-913.00,1130.00
11:47:28 07/04/2014,-0.64,-0.01,0.69,-0.34,-0.35,-2.51,-0.28,-45.29,-74.89,681.40,-1867.00,-913.00,1130.00
11:47:28 07/04/2014,-0.62,0.01,0.69,-0.36,-0.31,-2.53,-0.32,-45.04,-75.13,681.76,-1867.00,-913.00,1130.00
11:47:28 07/04/2014,-0.61,0.03,0.70,-0.38,-0.25,-2.58,-0.33,-46.33,-76.35,682.01,-1867.00,-913.00,1130.00
11:47:28 07/04/2014,-0.59,0.05,0.70,-0.40,-0.21,-2.59,-0.27,-44.62,-75.01,682.31,-1867.00,-913.00,1130.00
11:47:28 07/04/2014,-0.58,0.07,0.70,-0.41,-0.13,-2.61,-0.27,-45.04,-74.04,682.86,-1867.00,-913.00,1130.00
11:47:28 07/04/2014,-0.56,0.10,0.70,-0.43,-0.12,-2.61,-0.31,-46.20,-74.28,683.35,-1867.00,-913.00,1130.00
11:47:28 07/04/2014,-0.55,0.12,0.70,-0.44,-0.03,-2.62,-0.30,-44.13,-73.49,683.59,81.00,-2520.00,855.00
11:47:28 07/04/2014,-0.53,0.14,0.70,-0.46,-0.01,-2.59,-0.36,-44.80,-74.46,683.84,81.00,-2520.00,855.00
11:47:28 07/04/2014,-0.52,0.16,0.70,-0.47,0.08,-2.63,-0.34,-47.91,-78.12,683.84,81.00,-2520.00,855.00
11:47:28 07/04/2014,-0.50,0.18,0.69,-0.49,0.15,-2.60,-0.37,-44.62,-79.16,684.02,81.00,-2520.00,855.00
11:47:28 07/04/2014,-0.48,0.20,0.69,-0.50,0.19,-2.61,-0.40,-45.53,-78.55,684.20,81.00,-2520.00,855.00
11:47:28 07/04/2014,-0.46,0.22,0.69,-0.52,0.30,-2.62,-0.40,-46.08,-77.58,684.51,81.00,-2520.00,855.00
11:47:28 07/04/2014,-0.44,0.24,0.68,-0.53,0.29,-2.55,-0.27,-42.85,-75.38,685.12,81.00,-2520.00,855.00
11:47:28 07/04/2014,-0.42,0.26,0.68,-0.54,0.38,-2.58,-0.28,-43.52,-75.68,685.30,81.00,-2520.00,855.00
11:47:28 07/04/2014,-0.41,0.28,0.67,-0.55,0.42,-2.57,-0.30,-42.24,-74.22,685.67,81.00,-2520.00,855.00
11:47:28 07/04/2014,-0.39,0.30,0.67,-0.57,0.51,-2.51,-0.27,-41.56,-74.22,685.73,81.00,-2520.00,855.00
11:47:28 07/04/2014,-0.37,0.31,0.66,-0.58,0.51,-2.50,-0.32,-41.87,-73.97,685.97,81.00,-2520.00,855.00
11:47:28 07/04/2014,-0.35,0.33,0.65,-0.59,0.61,-2.46,-0.31,-41.44,-74.04,686.04,81.00,-2520.00,855.00
11:47:28 07/04/2014,-0.33,0.35,0.64,-0.60,0.62,-2.40,-0.38,-41.99,-73.91,686.46,81.00,-2520.00,855.00
11:47:28 07/04/2014,-0.30,0.37,0.63,-0.61,0.69,-2.38,-0.42,-43.40,-75.44,686.58,81.00,-2520.00,855.00
11:47:28 07/04/2014,-0.28,0.39,0.63,-0.62,0.73,-2.34,-0.27,-42.42,-76.72,686.83,81.00,-2520.00,855.00
11:47:28 07/04/2014,-0.26,0.40,0.62,-0.62,0.78,-2.30,-0.22,-42.72,-76.84,687.13,81.00,-2520.00,855.00
11:47:28 07/04/2014,-0.24,0.42,0.60,-0.63,0.80,-2.27,-0.29,-43.95,-76.72,687.32,81.00,-2520.00,855.00
11:47:28 07/04/2014,-0.22,0.44,0.59,-0.64,0.86,-2.20,-0.27,-42.72,-77.09,687.50,1966.00,-1449.00,718.00
11:47:28 07/04/2014,-0.20,0.45,0.58,-0.65,0.88,-2.15,-0.28,-42.48,-76.72,687.87,1966.00,-1449.00,718.00
11:47:28 07/04/2014,-0.17,0.47,0.57,-0.65,0.90,-2.11,-0.39,-43.46,-76.35,688.05,1966.00,-1449.00,718.00
11:47:28 07/04/2014,-0.15,0.48,0.56,-0.66,0.95,-2.07,-0.28,-42.18,-75.50,688.29,1966.00,-1449.00,718.00
11:47:28 07/04/2014,-0.13,0.50,0.55,-0.66,0.95,-1.96,-0.23,-42.30,-75.07,688.60,1966.00,-1449.00,718.00
11:47:28 07/04/2014,-0.11,0.51,0.53,-0.67,1.03,-1.96,-0.36,-45.10,-75.93,688.29,1966.00,-1449.00,718.00
11:47:28 07/04/2014,-0.08,0.53,0.52,-0.67,1.01,-1.90,-0.19,-42.36,-77.94,688.23,1966.00,-1449.00,718.00
11:47:28 07/04/2014,-0.06,0.54,0.50,-0.67,1.06,-1.82,-0.23,-43.46,-79.35,687.99,1966.00,-1449.00,718.00
11:47:28 07/04/2014,-0.04,0.55,0.49,-0.68,1.01,-1.77,-0.27,-44.56,-78.49,688.05,1966.00,-1449.00,718.00
11:47:28 07/04/2014,-0.01,0.56,0.47,-0.68,0.99,-1.74,-0.26,-43.76,-78.74,688.05,1966.00,-1449.00,718.00
11:47:28 07/04/2014,0.01,0.57,0.46,-0.68,0.96,-1.69,-0.25,-43.52,-77.45,688.11,1966.00,-1449.00,718.00
11:47:28 07/04/2014,0.03,0.59,0.44,-0.68,0.99,-1.61,-0.27,-44.13,-77.27,687.93,1966.00,-1449.00,718.00
11:47:28 07/04/2014,0.05,0.60,0.42,-0.68,1.02,-1.54,-0.19,-43.33,-77.21,687.74,1966.00,-1449.00,718.00
11:47:28 07/04/2014,0.08,0.61,0.41,-0.68,0.99,-1.48,-0.21,-44.07,-77.39,687.56,1966.00,-1449.00,718.00
11:47:28 07/04/2014,0.10,0.62,0.39,-0.68,1.01,-1.42,-0.15,-43.64,-77.27,687.38,1966.00,-1449.00,718.00
11:47:28 07/04/2014,0.12,0.62,0.37,-0.67,0.96,-1.38,-0.16,-43.82,-76.48,687.32,1966.00,-1449.00,718.00
11:47:28 07/04/2014,0.14,0.63,0.36,-0.67,0.93,-1.32,-0.18,-43.76,-75.81,687.26,1966.00,-1449.00,718.00
11:47:28 07/04/2014,0.17,0.64,0.34,-0.67,0.89,-1.28,-0.26,-44.37,-74.95,687.13,1097.00,945.00,993.00
11:47:28 07/04/2014,0.19,0.65,0.32,-0.66,0.93,-1.21,-0.13,-43.64,-74.16,686.89,1097.00,945.00,993.00
11:47:28 07/04/2014,0.21,0.66,0.30,-0.66,0.88,-1.13,-0.22,-44.86,-74.58,686.71,1097.00,945.00,993.00
11:47:28 07/04/2014,0.23,0.66,0.28,-0.66,0.81,-1.06,-0.05,-44.37,-74.22,686.28,1097.00,945.00,993.00
11:47:28 07/04/2014,0.75,0.45,-0.47,-0.11,-0.87,-2.03,-0.22,-45.10,-77.94,689.27,1097.00,945.00,993.00
11:47:28 07/04/2014,0.75,0.44,-0.48,-0.09,-0.87,-2.11,-0.18,-44.19,-76.84,689.70,1097.00,945.00,993.00
11:47:28 07/04/2014,0.76,0.42,-0.50,-0.07,-0.76,-2.17,-0.14,-43.27,-76.23,689.94,1097.00,945.00,993.00
11:47:28 07/04/2014,0.76,0.40,-0.51,-0.05,-0.75,-2.23,-0.24,-44.31,-76.23,690.61,1097.00,945.00,993.00
11:47:28 07/04/2014,0.76,0.38,-0.53,-0.03,-0.75,-2.25,-0.26,-43.95,-76.35,690.92,1097.00,945.00,993.00
11:47:28 07/04/2014,0.76,0.37,-0.54,-0.01,-0.70,-2.28,-0.30,-43.76,-75.07,691.28,1097.00,945.00,993.00
11:47:28 07/04/2014,0.76,0.35,-0.56,0.01,-0.68,-2.35,-0.38,-45.23,-75.62,691.59,1097.00,945.00,993.00
11:47:28 07/04/2014,0.75,0.33,-0.57,0.03,-0.65,-2.39,-0.33,-44.37,-76.05,691.71,1097.00,945.00,993.00
11:47:28 07/04/2014,0.75,0.31,-0.58,0.05,-0.59,-2.45,-0.22,-43.76,-75.44,691.83,1097.00,945.00,993.00
11:47:28 07/04/2014,0.75,0.29,-0.59,0.08,-0.53,-2.51,-0.22,-44.56,-75.68,692.20,1097.00,945.00,993.00
11:47:28 07/04/2014,0.74,0.27,-0.60,0.10,-0.48,-2.51,-0.24,-44.37,-75.44,692.44,1097.00,945.00,993.00
11:47:28 07/04/2014,0.74,0.25,-0.62,0.12,-0.44,-2.53,-0.25,-44.01,-75.07,692.87,1097.00,945.00,993.00
11:47:28 07/04/2014,0.73,0.23,-0.63,0.14,-0.41,-2.56,-0.29,-43.03,-74.28,693.24,1097.00,945.00,993.00
11:47:28 07/04/2014,0.73,0.21,-0.63,0.16,-0.32,-2.62,-0.30,-44.49,-75.20,693.42,1097.00,945.00,993.00
11:47:28 07/04/2014,0.72,0.19,-0.64,0.18,-0.26,-2.60,-0.39,-43.95,-73.91,693.79,1097.00,945.00,993.00
11:47:28 07/04/2014,0.71,0.17,-0.65,0.20,-0.19,-2.64,-0.30,-43.76,-73.67,694.03,1097.00,945.00,993.00
11:47:28 07/04/2014,0.70,0.15,-0.66,0.22,-0.19,-2.66,-0.26,-42.54,-72.33,694.46,1097.00,945.00,993.00
11:47:28 07/04/2014,0.69,0.13,-0.67,0.24,-0.10,-2.65,-0.31,-45.53,-74.95,694.70,1097.00,945.00,993.00
11:47:28 07/04/2014,0.68,0.11,-0.67,0.26,-0.05,-2.66,-0.34,-44.62,-76.54,694.82,1097.00,945.00,993.00
11:47:28 07/04/2014,0.67,0.08,-0.68,0.28,-0.00,-2.70,-0.32,-43.40,-77.03,694.89,1097.00,945.00,993.00
11:47:28 07/04/2014,0.66,0.06,-0.68,0.30,0.09,-2.68,-0.20,-40.16,-77.51,694.95,1097.00,945.00,993.00
11:47:28 07/04/2014,0.65,0.04,-0.69,0.32,0.11,-2.63,-0.27,-42.48,-76.54,695.37,1097.00,945.00,993.00
11:47:28 07/04/2014,0.64,0.02,-0.69,0.33,0.24,-2.68,-0.35,-47.73,-79.28,695.37,-409.00,1559.00,1253.00
11:47:28 07/04/2014,0.63,-0.00,-0.70,0.35,0.24,-2.64,-0.32,-42.91,-77.82,695.68,-409.00,1559.00,1253.00
11:47:28 07/04/2014,0.61,-0.02,-0.70,0.37,0.25,-2.65,-0.34,-42.30,-77.88,695.50,-409.00,1559.00,1253.00
11:47:28 07/04/2014,0.60,-0.04,-0.70,0.39,0.34,-2.60,-0.32,-41.02,-77.03,695.56,-409.00,1559.00,1253.00
11:47:28 07/04/2014,0.58,-0.07,-0.70,0.41,0.43,-2.59,-0.36,-42.54,-75.38,695.56,-409.00,1559.00,1253.00
11:47:28 07/04/2014,0.57,-0.09,-0.70,0.42,0.51,-2.55,-0.28,-41.75,-76.48,695.31,-409.00,1559.00,1253.00
11:47:28 07/04/2014,0.55,-0.11,-0.70,0.44,0.56,-2.53,-0.31,-42.11,-75.93,695.13,-409.00,1559.00,1253.00
11:47:28 07/04/2014,0.54,-0.13,-0.70,0.45,0.53,-2.52,-0.41,-43.09,-77.33,694.89,-409.00,1559.00,1253.00
11:47:28 07/04/2014,0.52,-0.15,-0.70,0.47,0.62,-2.48,-0.31,-42.42,-79.28,694.40,-409.00,1559.00,1253.00
11:47:28 07/04/2014,0.50,-0.17,-0.70,0.48,0.67,-2.41,-0.25,-41.63,-79.41,694.27,-409.00,1559.00,1253.00
11:47:28 07/04/2014,0.48,-0.19,-0.69,0.50,0.69,-2.41,-0.37,-43.70,-78.61,694.21,-409.00,1559.00,1253.00
11:47:28 07/04/2014,0.47,-0.21,-0.69,0.51,0.75,-2.34,-0.32,-42.72,-79.22,693.91,-409.00,1559.00,1253.00
11:47:28 07/04/2014,0.45,-0.23,-0.69,0.53,0.78,-2.26,-0.26,-42.54,-77.51,693.91,-409.00,1559.00,1253.00
11:47:28 07/04/2014,0.43,-0.25,-0.68,0.54,0.82,-2.24,-0.42,-44.62,-77.51,693.48,-409.00,1559.00,1253.00
11:47:28 07/04/2014,0.41,-0.27,-0.67,0.55,0.87,-2.16,-0.21,-41.81,-77.58,693.18,-409.00,1559.00,1253.00
11:47:28 07/04/2014,0.39,-0.29,-0.67,0.56,0.88,-2.12,-0.17,-40.89,-77.70,692.93,-409.00,1559.00,1253.00
11:47:28 07/04/2014,0.37,-0.31,-0.66,0.57,0.95,-2.07,-0.26,-42.66,-76.84,692.57,-409.00,1559.00,1253.00
11:47:28 07/04/2014,0.35,-0.33,-0.65,0.59,0.98,-2.03,-0.35,-42.66,-76.90,692.32,-409.00,1559.00,1253.00
11:47:28 07/04/2014,0.33,-0.35,-0.65,0.60,0.94,-1.95,-0.31,-41.20,-77.15,692.02,-409.00,1559.00,1253.00
11:47:28 07/04/2014,0.31,-0.37,-0.64,0.61,0.99,-1.90,-0.38,-42.42,-77.51,691.53,212.00,-2646.00,871.00
11:47:28 07/04/2014,0.28,-0.38,-0.63,0.61,1.00,-1.84,-0.28,-42.05,-75.13,691.47,212.00,-2646.00,871.00
11:47:28 07/04/2014,0.26,-0.40,-0.62,0.62,1.02,-1.79,-0.14,-41.75,-75.32,691.22,212.00,-2646.00,871.00
11:47:28 07/04/2014,0.24,-0.42,-0.61,0.63,1.01,-1.75,-0.22,-43.33,-74.46,691.10,212.00,-2646.00,871.00
11:47:28 07/04/2014,0.22,-0.43,-0.60,0.64,0.97,-1.66,-0.22,-43.03,-73.24,691.10,212.00,-2646.00,871.00
11:47:28 07/04/2014,0.20,-0.45,-0.59,0.64,1.02,-1.60,-0.23,-42.97,-73.73,690.92,212.00,-2646.00,871.00
11:47:28 07/04/2014,0.18,-0.47,-0.57,0.65,1.05,-1.56,-0.23,-43.27,-72.75,690.86,212.00,-2646.00,871.00
11:47:28 07/04/2014,0.15,-0.48,-0.56,0.66,1.00,-1.47,-0.23,-41.81,-73.67,690.92,212.00,-2646.00,871.00
11:47:28 07/04/2014,0.13,-0.50,-0.55,0.66,0.98,-1.40,-0.28,-43.40,-74.46,690.55,212.00,-2646.00,871.00
11:47:28 07/04/2014,0.11,-0.51,-0.53,0.66,0.98,-1.36,-0.19,-44.49,-77.15,690.00,212.00,-2646.00,871.00
11:47:28 07/04/2014,0.08,-0.52,-0.52,0.67,0.94,-1.33,-0.13,-44.86,-78.49,689.88,212.00,-2646.00,871.00
11:47:28 07/04/2014,0.06,-0.54,-0.51,0.67,0.92,-1.29,-0.20,-45.53,-78.98,689.88,212.00,-2646.00,871.00
11:47:28 07/04/2014,0.04,-0.55,-0.49,0.67,0.87,-1.20,-0.19,-45.23,-77.94,689.94,212.00,-2646.00,871.00
11:47:28 07/04/2014,0.02,-0.56,-0.48,0.68,0.86,-1.16,-0.26,-45.84,-77.39,689.94,212.00,-2646.00,871.00
11:47:28 07/04/2014,-0.01,-0.58,-0.46,0.68,0.86,-1.12,-0.20,-45.35,-75.74,690.00,212.00,-2646.00,871.00
11:47:28 07/04/2014,-0.03,-0.59,-0.44,0.68,0.82,-1.05,-0.09,-45.35,-74.52,690.06,212.00,-2646.00,871.00
11:47:28 07/04/2014,-0.05,-0.60,-0.43,0.68,0.74,-1.01,-0.02,-45.04,-73.85,690.12,212.00,-2646.00,871.00
11:47:28 07/04/2014,-0.08,-0.61,-0.41,0.68,0.74,-0.97,-0.11,-44.01,-73.12,690.06,212.00,-2646.00,871.00
11:47:28 07/04/2014,-0.10,-0.62,-0.39,0.67,0.65,-0.90,-0.13,-42.30,-73.61,690.00,212.00,-2646.00,871.00
11:47:28 07/04/2014,-0.12,-0.63,-0.38,0.67,0.65,-0.89,-0.27,-42.72,-74.95,689.70,2146.00,-1165.00,657.00
11:47:28 07/04/2014,-0.14,-0.63,-0.36,0.67,0.58,-0.85,-0.18,-42.85,-73.55,689.64,2146.00,-1165.00,657.00
11:47:28 07/04/2014,-0.17,-0.64,-0.34,0.67,0.52,-0.83,-0.04,-44.01,-73.36,689.39,2146.00,-1165.00,657.00
11:47:28 07/04/2014,-0.19,-0.65,-0.32,0.66,0.46,-0.81,-0.10,-44.19,-73.12,689.33,2146.00,-1165.00,657.00
11:47:28 07/04/2014,-0.21,-0.66,-0.30,0.66,0.37,-0.77,-0.07,-44.01,-73.55,689.09,2146.00,-1165.00,657.00
11:47:28 07/04/2014,-0.23,-0.66,-0.28,0.65,0.37,-0.75,-0.17,-43.33,-74.77,688.96,2146.00,-1165.00,657.00
11:47:28 07/04/2014,-0.25,-0.67,-0.26,0.65,0.33,-0.73,-0.11,-43.15,-72.08,689.21,2146.00,-1165.00,657.00
11:47:28 07/04/2014,-0.27,-0.67,-0.24,0.64,0.24,-0.69,-0.09,-42.91,-70.98,689.33,2146.00,-1165.00,657.00
11:47:28 07/04/2014,-0.30,-0.68,-0.22,0.63,0.16,-0.73,-0.10,-43.21,-71.47,689.33,2146.00,-1165.00,657.00
11:47:28 07/04/2014,-0.32,-0.68,-0.20,0.63,0.16,-0.70,-0.11,-42.11,-71.17,689.15,2146.00,-1165.00,657.00
11:47:28 07/04/2014,-0.34,-0.69,-0.18,0.62,0.08,-0.68,-0.04,-42.97,-72.51,689.15,2146.00,-1165.00,657.00
11:47:28 07/04/2014,-0.36,-0.69,-0.16,0.61,-0.00,-0.70,-0.08,-44.07,-72.27,689.15,2146.00,-1165.00,657.00
11:47:28 07/04/2014,-0.38,-0.69,-0.14,0.60,-0.03,-0.69,-0.10,-44.56,-73.43,689.27,2146.00,-1165.00,657.00
11:47:28 07/04/2014,-0.40,-0.69,-0.12,0.59,-0.10,-0.69,-0.06,-44.92,-72.69,689.39,2146.00,-1165.00,657.00
11:47:28 07/04/2014,-0.42,-0.69,-0.10,0.58,-0.20,-0.74,-0.12,-46.14,-72.45,689.58,2146.00,-1165.00,657.00
11:47:28 07/04/2014,-0.44,-0.69,-0.08,0.57,-0.18,-0.70,0.07,-46.20,-72.51,689.45,2146.00,-1165.00,657.00
11:47:28 07/04/2014,-0.45,-0.69,-0.06,0.56,-0.25,-0.74,-0.08,-45.84,-74.16,690.12,2146.00,-1165.00,657.00
11:47:28 07/04/2014,-0.47,-0.69,-0.04,0.55,-0.33,-0.77,-0.06,-43.21,-78.61,690.49,2146.00,-1165.00,657.00
11:47:28 07/04/2014,-0.49,-0.69,-0.02,0.54,-0.39,-0.79,-0.09,-43.58,-76.72,690.98,2146.00,-1165.00,657.00
11:47:28 07/04/2014,-0.51,-0.69,0.01,0.52,-0.40,-0.84,-0.08,-44.56,-73.79,691.04,999.00,1039.00,1024.00
11:47:28 07/04/2014,-0.52,-0.68,0.03,0.51,-0.46,-0.83,0.00,-46.08,-74.28,691.59,999.00,1039.00,1024.00
11:47:28 07/04/2014,-0.54,-0.68,0.05,0.50,-0.56,-0.89,-0.08,-45.17,-76.23,692.20,999.00,1039.00,1024.00
11:47:28 07/04/2014,-0.56,-0.67,0.07,0.48,-0.57,-0.90,-0.03,-44.80,-75.20,692.57,999.00,1039.00,1024.00
11:47:28 07/04/2014,-0.57,-0.67,0.09,0.47,-0.59,-0.96,-0.03,-45.17,-75.68,693.05,999.00,1039.00,1024.00
11:47:28 07/04/2014,-0.59,-0.66,0.11,0.45,-0.66,-1.03,-0.05,-44.74,-75.44,693.60,999.00,1039.00,1024.00
11:47:28 07/04/2014,-0.60,-0.66,0.13,0.44,-0.69,-1.07,-0.11,-45.04,-75.99,694.09,999.00,1039.00,1024.00
11:47:28 07/04/2014,-0.61,-0.65,0.15,0.42,-0.71,-1.09,0.01,-44.98,-75.93,694.52,999.00,1039.00,1024.00
11:47:28 07/04/2014,-0.63,-0.64,0.17,0.40,-0.75,-1.12,-0.15,-45.23,-76.54,695.25,999.00,1039.00,1024.00
11:47:28 07/04/2014,-0.64,-0.63,0.20,0.39,-0.79,-1.21,-0.15,-45.17,-78.74,695.74,999.00,1039.00,1024.00
11:47:28 07/04/2014,-0.65,-0.63,0.22,0.37,-0.84,-1.25,-0.15,-45.17,-79.04,696.35,999.00,1039.00,1024.00
11:47:28 07/04/2014,-0.66,-0.62,0.24,0.35,-0.86,-1.32,-0.14,-45.72,-78.00,696.96,999.00,1039.00,1024.00
11:47:28 07/04/2014,-0.67,-0.61,0.26,0.33,-0.87,-1.38,-0.05,-46.14,-76.66,697.57,999.00,1039.00,1024.00
11:47:28 07/04/2014,-0.69,-0.59,0.28,0.32,-0.91,-1.45,-0.06,-46.69,-75.68,698.30,999.00,1039.00,1024.00
11:47:28 07/04/2014,-0.69,-0.58,0.30,0.30,-0.89,-1.47,-0.11,-47.12,-76.72,698.91,999.00,1039.00,1024.00
11:47:28 07/04/2014,-0.70,-0.57,0.32,0.28,-0.88,-1.54,-0.15,-47.24,-77.09,699.77,999.00,1039.00,1024.00
11:47:28 07/04/2014,-0.71,-0.56,0.34,0.26,-0.92,-1.63,-0.22,-46.81,-77.33,700.56,999.00,1039.00,1024.00
11:47:28 07/04/2014,-0.72,-0.55,0.35,0.24,-0.93,-1.71,-0.15,-45.59,-78.49,700.93,999.00,1039.00,1024.00
11:47:28 07/04/2014,-0.73,-0.53,0.37,0.22,-0.93,-1.74,-0.16,-45.29,-79.41,701.54,999.00,1039.00,1024.00
11:47:28 07/04/2014,-0.73,-0.52,0.39,0.20,-0.90,-1.79,-0.19,-45.17,-79.53,702.21,-770.00,1354.00,1314.00
11:47:28 07/04/2014,-0.74,-0.50,0.41,0.18,-0.91,-1.87,-0.15,-46.69,-80.51,703.06,-770.00,1354.00,1314.00
11:47:28 07/04/2014,-0.74,-0.49,0.43,0.16,-0.95,-1.95,-0.14,-46.20,-79.96,703.92,-770.00,1354.00,1314.00
11:47:28 07/04/2014,-0.75,-0.47,0.45,0.14,-0.89,-1.99,-0.21,-45.65,-78.19,704.71,-770.00,1354.00,1314.00
11:47:28 07/04/2014,-0.75,-0.46,0.46,0.12,-0.88,-2.05,-0.30,-47.55,-80.38,705.38,-770.00,1354.00,1314.00
11:47:28 07/04/2014,-0.75,-0.44,0.48,0.10,-0.87,-2.10,-0.18,-45.35,-81.05,705.81,-770.00,1354.00,1314.00
11:47:28 07/04/2014,-0.76,-0.42,0.49,0.08,-0.84,-2.19,-0.15,-45.78,-79.10,706.42,-770.00,1354.00,1314.00
11:47:28 07/04/2014,-0.76,-0.41,0.51,0.06,-0.83,-2.24,-0.17,-45.65,-77.94,707.03,-770.00,1354.00,1314.00
11:47:28 07/04/2014,-0.76,-0.39,0.52,0.03,-0.75,-2.27,-0.22,-45.59,-77.39,707.64,-770.00,1354.00,1314.00
11:47:28 07/04/2014,-0.76,-0.37,0.54,0.01,-0.76,-2.33,-0.29,-46.51,-78.12,708.25,-770.00,1354.00,1314.00
11:47:28 07/04/2014,-0.76,-0.35,0.55,-0.01,-0.73,-2.40,-0.31,-47.24,-80.63,708.43,-770.00,1354.00,1314.00
11:47:28 07/04/2014,-0.75,-0.33,0.57,-0.03,-0.65,-2.49,-0.33,-46.57,-80.63,708.68,-770.00,1354.00,1314.00
11:47:28 07/04/2014,-0.75,-0.31,0.58,-0.05,-0.57,-2.47,-0.29,-44.80,-78.12,709.05,-770.00,1354.00,1314.00
11:47:28 07/04/2014,-0.75,-0.29,0.59,-0.07,-0.60,-2.55,-0.27,-46.75,-78.49,709.78,-770.00,1354.00,1314.00
11:47:28 07/04/2014,-0.74,-0.27,0.60,-0.09,-0.54,-2.60,-0.26,-45.59,-77.39,710.27,-770.00,1354.00,1314.00
11:47:28 07/04/2014,-0.74,-0.25,0.61,-0.12,-0.48,-2.61,-0.20,-44.62,-76.60,710.69,-770.00,1354.00,1314.00
11:47:28 07/04/2014,-0.73,-0.23,0.63,-0.14,-0.43,-2.62,-0.24,-44.62,-76.29,711.30,-770.00,1354.00,1314.00
11:47:28 07/04/2014,-0.73,-0.21,0.63,-0.16,-0.38,-2.66,-0.34,-46.02,-77.39,711.79,-770.00,1354.00,1314.00
11:47:28 07/04/2014,-0.72,-0.19,0.64,-0.18,-0.31,-2.70,-0.38,-46.14,-78.86,711.85,-770.00,1354.00,1314.00
11:47:28 07/04/2014,-0.71,-0.17,0.65,-0.20,-0.28,-2.72,-0.37,-45.59,-79.47,711.98,-1867.00,-630.00,1100.00
11:47:28 07/04/2014,-0.70,-0.15,0.66,-0.22,-0.19,-2.72,-0.34,-44.49,-79.04,712.10,-1867.00,-630.00,1100.00
11:47:28 07/04/2014,-0.69,-0.12,0.67,-0.24,-0.15,-2.74,-0.29,-44.19,-77.94,712.40,-1867.00,-630.00,1100.00
11:47:28 07/04/2014,-0.68,-0.10,0.67,-0.26,-0.10,-2.73,-0.27,-43.33,-76.78,712.71,-1867.00,-630.00,1100.00
11:47:28 07/04/2014,-0.67,-0.08,0.68,-0.28,-0.06,-2.78,-0.31,-45.41,-77.33,713.13,-1867.00,-630.00,1100.00
11:47:28 07/04/2014,-0.66,-0.06,0.69,-0.30,0.02,-2.78,-0.29,-44.01,-77.64,713.32,-1867.00,-630.00,1100.00
11:47:29 07/04/2014,-0.65,-0.04,0.69,-0.32,0.08,-2.75,-0.26,-42.42,-76.90,713.44,-1867.00,-630.00,1100.00
11:47:29 07/04/2014,-0.64,-0.01,0.69,-0.34,0.14,-2.74,-0.29,-43.70,-77.15,713.81,-1867.00,-630.00,1100.00
11:47:29 07/04/2014,-0.62,0.01,0.70,-0.36,0.26,-2.74,-0.43,-47.73,-78.12,713.75,-1867.00,-630.00,1100.00
11:47:29 07/04/2014,-0.61,0.03,0.70,-0.38,0.29,-2.71,-0.32,-44.37,-77.64,713.81,-1867.00,-630.00,1100.00
11:47:29 07/04/2014,-0.59,0.05,0.70,-0.39,0.31,-2.71,-0.34,-43.33,-78.43,713.75,-1867.00,-630.00,1100.00
